,ax,ay,az,gx,gy,gz
00:00:00,0.00341796875,-0.009765625,1.001708984375,-1.9207317073170733,1.4634146341463417,0.39634146341463417
00:00:00.005087,-0.0009765625,-0.0166015625,1.00537109375,-2.103658536585366,1.7987804878048783,0.4573170731707317
00:00:00.010209,0.0,-0.017333984375,0.998291015625,-1.707317073170732,1.5548780487804879,0.3658536585365854
00:00:00.015400,0.001220703125,-0.01025390625,1.011474609375,-1.981707317073171,1.5853658536585367,0.30487804878048785
00:00:00.020561,0.002685546875,-0.014892578125,1.00439453125,-1.829268292682927,1.4939024390243905,0.3658536585365854
00:00:00.025747,0.004638671875,-0.015625,0.997802734375,-2.0426829268292686,1.6463414634146343,0.30487804878048785
00:00:00.030986,-0.002197265625,-0.01611328125,1.0029296875,-1.8597560975609757,1.402439024390244,0.2134146341463415
00:00:00.036140,0.00146484375,-0.009033203125,1.00048828125,-1.9207317073170733,1.6158536585365855,0.27439024390243905
00:00:00.041355,-0.001953125,-0.015869140625,1.001220703125,-2.0426829268292686,1.3414634146341464,0.39634146341463417
00:00:00.046515,0.010009765625,-0.01513671875,1.0,-1.9207317073170733,1.676829268292683,0.3353658536585366
00:00:00.051725,-0.002685546875,-0.011962890625,1.00732421875,-2.0426829268292686,1.5243902439024393,0.27439024390243905
00:00:00.056889,0.006591796875,-0.008544921875,1.000244140625,-1.9512195121951221,1.4634146341463417,0.3658536585365854
00:00:00.062030,-0.00439453125,-0.012939453125,1.007568359375,-1.9512195121951221,1.5243902439024393,0.39634146341463417
00:00:00.067521,-0.0048828125,-0.012451171875,0.998291015625,-2.073170731707317,1.5548780487804879,0.30487804878048785
00:00:00.072701,-0.01171875,-0.012939453125,1.0087890625,-1.9512195121951221,1.4939024390243905,0.30487804878048785
00:00:00.077936,-0.003173828125,-0.013671875,0.993896484375,-1.9512195121951221,1.5243902439024393,0.3353658536585366
00:00:00.083142,-0.003662109375,-0.017822265625,1.005859375,-1.981707317073171,1.4329268292682928,0.3353658536585366
00:00:00.088544,0.0,-0.005126953125,1.00634765625,-1.9512195121951221,1.5243902439024393,0.3658536585365854
00:00:00.093625,-0.005859375,-0.0166015625,0.99853515625,-1.9512195121951221,1.4634146341463417,0.27439024390243905
00:00:00.098886,-0.00390625,-0.009033203125,0.998291015625,-1.8902439024390245,1.5243902439024393,0.30487804878048785
00:00:00.104132,-0.001220703125,-0.012939453125,1.00537109375,-1.9512195121951221,1.707317073170732,0.3353658536585366
00:00:00.109259,-0.001708984375,-0.008544921875,1.001220703125,-1.8902439024390245,1.3109756097560976,0.39634146341463417
00:00:00.114502,0.006103515625,-0.00830078125,0.999755859375,-2.0426829268292686,1.6158536585365855,0.30487804878048785
00:00:00.119770,-0.002685546875,-0.0126953125,1.0,-1.7682926829268295,1.4634146341463417,0.27439024390243905
00:00:00.125115,0.00390625,-0.006591796875,0.996826171875,-2.0121951219512195,1.5548780487804879,0.27439024390243905
00:00:00.130294,-0.005859375,-0.011474609375,1.0029296875,-2.0121951219512195,1.402439024390244,0.2134146341463415
00:00:00.135620,-0.001708984375,-0.010498046875,0.990478515625,-2.0121951219512195,1.707317073170732,0.24390243902439027
00:00:00.141177,-0.002197265625,-0.01611328125,1.012451171875,-1.8597560975609757,1.3109756097560976,0.30487804878048785
00:00:00.146544,0.00732421875,-0.01025390625,0.999755859375,-2.073170731707317,1.5548780487804879,0.27439024390243905
00:00:00.151826,0.00244140625,-0.012939453125,1.00537109375,-1.829268292682927,1.3414634146341464,0.39634146341463417
00:00:00.157051,0.005126953125,-0.009521484375,1.001953125,-1.981707317073171,1.5853658536585367,0.24390243902439027
00:00:00.162244,-0.00439453125,-0.015869140625,1.0068359375,-1.9207317073170733,1.3109756097560976,0.2134146341463415
00:00:00.167456,0.008056640625,-0.002685546875,1.010009765625,-2.0121951219512195,1.5548780487804879,0.39634146341463417
00:00:00.172735,0.00146484375,-0.016845703125,1.010009765625,-1.8597560975609757,1.402439024390244,0.24390243902439027
00:00:00.179925,0.001953125,-0.008544921875,1.003173828125,-2.0426829268292686,1.7378048780487807,0.3658536585365854
00:00:00.183992,0.00341796875,-0.01513671875,1.008544921875,-1.981707317073171,1.5243902439024393,0.30487804878048785
00:00:00.189315,0.002197265625,-0.008056640625,1.001708984375,-1.7987804878048783,1.4634146341463417,0.2134146341463415
00:00:00.194691,-0.00244140625,-0.01513671875,1.00341796875,-1.829268292682927,1.5548780487804879,0.30487804878048785
00:00:00.200094,0.005615234375,-0.013916015625,0.99951171875,-1.8902439024390245,1.7378048780487807,0.3353658536585366
00:00:00.205321,-0.008544921875,-0.012451171875,1.003662109375,-1.981707317073171,1.7682926829268295,0.39634146341463417
00:00:00.210593,0.000244140625,-0.00927734375,0.9921875,-1.8597560975609757,1.5548780487804879,0.3658536585365854
00:00:00.216094,-0.0048828125,-0.010498046875,1.005615234375,-2.103658536585366,1.707317073170732,0.15243902439024393
00:00:00.221259,-0.00244140625,-0.013916015625,1.005859375,-1.8597560975609757,1.6463414634146343,0.24390243902439027
00:00:00.226525,0.004638671875,-0.010498046875,1.005126953125,-1.8902439024390245,1.7378048780487807,0.27439024390243905
00:00:00.231826,0.003173828125,-0.0146484375,0.9970703125,-1.8597560975609757,1.402439024390244,0.30487804878048785
00:00:00.237013,0.001708984375,-0.011474609375,1.003662109375,-2.0426829268292686,1.676829268292683,0.426829268292683
00:00:00.242183,-0.000732421875,-0.0068359375,0.9951171875,-1.829268292682927,1.4634146341463417,0.3658536585365854
00:00:00.247626,0.0,-0.00634765625,0.993896484375,-2.0426829268292686,1.6158536585365855,0.3353658536585366
00:00:00.252937,0.002197265625,-0.0146484375,1.00146484375,-1.8597560975609757,1.3414634146341464,0.4573170731707317
00:00:00.258271,0.001220703125,-0.012451171875,0.996337890625,-1.981707317073171,1.5548780487804879,0.24390243902439027
00:00:00.263522,-0.002197265625,-0.01318359375,1.01220703125,-1.8597560975609757,1.3414634146341464,0.426829268292683
00:00:00.268758,0.0048828125,-0.008056640625,0.99853515625,-1.9207317073170733,1.402439024390244,0.39634146341463417
00:00:00.274083,-0.00341796875,-0.017822265625,1.005126953125,-1.981707317073171,1.5853658536585367,0.27439024390243905
00:00:00.279606,0.004150390625,-0.005615234375,1.007080078125,-2.103658536585366,1.6463414634146343,0.24390243902439027
00:00:00.287878,0.0,-0.006591796875,1.005126953125,-1.7987804878048783,1.707317073170732,0.3353658536585366
00:00:00.291021,0.005615234375,-0.01123046875,1.0009765625,-2.0426829268292686,1.4939024390243905,0.24390243902439027
00:00:00.296292,0.00244140625,-0.017578125,1.01220703125,-1.829268292682927,1.5243902439024393,0.3658536585365854
00:00:00.301617,0.001953125,-0.0146484375,1.0,-2.073170731707317,1.6158536585365855,0.27439024390243905
00:00:00.307274,-0.000244140625,-0.017578125,1.009765625,-1.8597560975609757,1.5548780487804879,0.426829268292683
00:00:00.312659,0.000244140625,-0.002197265625,0.999267578125,-1.829268292682927,1.6158536585365855,0.2134146341463415
00:00:00.318115,-0.002197265625,-0.01708984375,1.009033203125,-1.829268292682927,1.707317073170732,0.3353658536585366
00:00:00.323722,0.005126953125,-0.01025390625,0.989990234375,-2.073170731707317,1.5853658536585367,0.2134146341463415
00:00:00.328985,0.002685546875,-0.013427734375,1.0087890625,-1.981707317073171,1.4329268292682928,0.3658536585365854
00:00:00.334277,0.002197265625,-0.01025390625,1.001220703125,-1.981707317073171,1.3719512195121952,0.27439024390243905
00:00:00.339534,0.001220703125,-0.019287109375,1.001220703125,-1.9512195121951221,1.5243902439024393,0.3353658536585366
00:00:00.344801,0.003662109375,-0.0126953125,0.996337890625,-2.0121951219512195,1.4329268292682928,0.27439024390243905
00:00:00.350049,-0.0048828125,-0.013427734375,1.005126953125,-2.073170731707317,1.8597560975609757,0.1829268292682927
00:00:00.355259,0.005615234375,-0.01123046875,1.007080078125,-1.9512195121951221,1.4329268292682928,0.24390243902439027
00:00:00.360452,0.003173828125,-0.019287109375,1.002197265625,-2.0121951219512195,1.2804878048780488,0.27439024390243905
00:00:00.365888,0.00048828125,-0.012939453125,1.00732421875,-1.7987804878048783,1.5548780487804879,0.1829268292682927
00:00:00.371398,0.003662109375,-0.010498046875,1.0048828125,-1.9207317073170733,1.5853658536585367,0.15243902439024393
00:00:00.376963,0.006103515625,-0.011474609375,0.994140625,-1.9512195121951221,1.5853658536585367,0.30487804878048785
00:00:00.382389,0.000244140625,-0.017578125,1.010498046875,-1.9207317073170733,1.4939024390243905,0.27439024390243905
00:00:00.387778,0.003662109375,-0.0107421875,1.01318359375,-1.8597560975609757,1.6158536585365855,0.1829268292682927
00:00:00.393217,-0.00390625,-0.008056640625,1.00634765625,-1.981707317073171,1.5548780487804879,0.3353658536585366
00:00:00.398499,0.00244140625,-0.00927734375,0.994384765625,-1.981707317073171,1.5853658536585367,0.30487804878048785
00:00:00.403854,0.001953125,-0.0166015625,0.999755859375,-2.0426829268292686,1.5243902439024393,0.3658536585365854
00:00:00.409165,0.00439453125,-0.015625,0.99365234375,-1.8597560975609757,1.3414634146341464,0.2134146341463415
00:00:00.414527,-0.000732421875,-0.007568359375,1.001953125,-2.0426829268292686,1.7378048780487807,0.27439024390243905
00:00:00.419852,0.003662109375,-0.013427734375,1.005126953125,-2.0426829268292686,1.3414634146341464,0.3353658536585366
00:00:00.425004,0.0048828125,-0.00341796875,0.99951171875,-2.073170731707317,1.9512195121951221,0.3353658536585366
00:00:00.430207,0.002197265625,-0.008544921875,1.00439453125,-2.0426829268292686,1.5853658536585367,0.3353658536585366
00:00:00.435374,0.006591796875,-0.00634765625,0.997314453125,-1.981707317073171,1.6158536585365855,0.39634146341463417
00:00:00.440708,-0.003662109375,-0.016357421875,1.004150390625,-1.8902439024390245,1.5548780487804879,0.27439024390243905
00:00:00.446058,0.008544921875,-0.006103515625,0.992919921875,-2.073170731707317,1.8597560975609757,0.24390243902439027
00:00:00.451369,-0.00341796875,-0.0146484375,1.007080078125,-1.8597560975609757,1.5853658536585367,0.2134146341463415
00:00:00.456706,0.00341796875,-0.008056640625,0.995361328125,-1.8902439024390245,1.6463414634146343,0.27439024390243905
00:00:00.461968,-0.00927734375,-0.01416015625,1.0068359375,-1.829268292682927,1.6463414634146343,0.3353658536585366
00:00:00.467160,0.013427734375,-0.005615234375,1.000732421875,-1.981707317073171,1.4329268292682928,0.27439024390243905
00:00:00.472422,-0.00244140625,-0.01708984375,1.011962890625,-1.9512195121951221,1.5243902439024393,0.24390243902439027
00:00:00.477834,-0.000244140625,-0.014404296875,0.997314453125,-1.7987804878048783,1.402439024390244,0.30487804878048785
00:00:00.483457,-0.0048828125,-0.014892578125,1.008544921875,-2.073170731707317,1.4329268292682928,0.30487804878048785
00:00:00.489118,0.006591796875,-0.0029296875,1.004150390625,-1.8597560975609757,1.5243902439024393,0.30487804878048785
00:00:00.494405,-0.002685546875,-0.0126953125,1.0029296875,-2.0121951219512195,1.4329268292682928,0.1829268292682927
00:00:00.499729,0.0,-0.0126953125,1.000244140625,-1.9512195121951221,1.4939024390243905,0.30487804878048785
00:00:00.504936,-0.00146484375,-0.015869140625,1.004638671875,-2.0121951219512195,1.4634146341463417,0.39634146341463417
00:00:00.510123,0.004638671875,-0.010986328125,0.997802734375,-1.829268292682927,1.6158536585365855,0.3353658536585366
00:00:00.515432,-0.0029296875,-0.01123046875,1.004150390625,-2.1341463414634148,1.7682926829268295,0.30487804878048785
00:00:00.520657,-0.001953125,-0.013671875,1.002197265625,-1.7682926829268295,1.2804878048780488,0.30487804878048785
00:00:00.525862,-0.0029296875,-0.0078125,1.0048828125,-2.073170731707317,1.6158536585365855,0.30487804878048785
00:00:00.531132,-0.00634765625,-0.0107421875,0.996826171875,-1.7987804878048783,1.3719512195121952,0.3658536585365854
00:00:00.536322,0.008056640625,-0.00537109375,1.00634765625,-2.0121951219512195,1.707317073170732,0.30487804878048785
00:00:00.541533,0.004638671875,-0.00537109375,1.013427734375,-1.9512195121951221,1.5243902439024393,0.27439024390243905
00:00:00.546847,0.008056640625,-0.009765625,1.00244140625,-2.1951219512195124,1.7987804878048783,0.39634146341463417
00:00:00.552170,-0.00146484375,-0.016357421875,1.0068359375,-1.7987804878048783,1.3109756097560976,0.27439024390243905
00:00:00.557416,0.002197265625,-0.002197265625,1.00732421875,-1.9207317073170733,1.5243902439024393,0.2134146341463415
00:00:00.562695,-0.005126953125,-0.015869140625,1.006591796875,-1.7987804878048783,1.2500000000000002,0.24390243902439027
00:00:00.567852,0.006591796875,-0.002197265625,0.995361328125,-1.9512195121951221,1.5548780487804879,0.2134146341463415
00:00:00.573063,-0.005615234375,-0.018798828125,1.011962890625,-1.8902439024390245,1.3719512195121952,0.27439024390243905
00:00:00.578386,0.005859375,-0.007568359375,1.0078125,-1.981707317073171,1.5548780487804879,0.2134146341463415
00:00:00.584549,-0.00390625,-0.01806640625,1.00927734375,-1.8902439024390245,1.5853658536585367,0.15243902439024393
00:00:00.589174,0.001708984375,-0.011474609375,0.995849609375,-2.073170731707317,1.5548780487804879,0.27439024390243905
00:00:00.594482,-0.005615234375,-0.01416015625,1.0087890625,-2.164634146341464,1.7987804878048783,0.39634146341463417
00:00:00.599917,0.001220703125,-0.00634765625,0.9990234375,-1.8597560975609757,1.6158536585365855,0.24390243902439027
00:00:00.605141,-0.00146484375,-0.012939453125,1.0048828125,-1.981707317073171,1.5853658536585367,0.39634146341463417
00:00:00.610487,0.005126953125,-0.0048828125,1.006591796875,-1.829268292682927,1.5243902439024393,0.3658536585365854
00:00:00.615852,-0.00390625,-0.0166015625,1.00927734375,-1.9512195121951221,1.6463414634146343,0.3353658536585366
00:00:00.621229,-0.008056640625,-0.012451171875,1.009765625,-1.9207317073170733,1.3719512195121952,0.426829268292683
00:00:00.626523,0.00048828125,-0.006591796875,1.0068359375,-2.0121951219512195,1.8597560975609757,0.2134146341463415
00:00:00.631851,-0.00146484375,-0.018310546875,1.00341796875,-1.8902439024390245,1.4939024390243905,0.3658536585365854
00:00:00.637172,-0.0029296875,-0.003662109375,1.006103515625,-2.0426829268292686,1.6463414634146343,0.24390243902439027
00:00:00.642408,-0.000244140625,-0.01025390625,1.009521484375,-1.7682926829268295,1.3414634146341464,0.4573170731707317
00:00:00.647582,0.000732421875,-0.0068359375,0.997802734375,-1.9512195121951221,1.676829268292683,0.30487804878048785
00:00:00.652832,-0.00341796875,-0.007568359375,1.0068359375,-1.7682926829268295,1.5548780487804879,0.27439024390243905
00:00:00.658222,-0.00634765625,-0.006103515625,1.008544921875,-1.9512195121951221,1.4329268292682928,0.27439024390243905
00:00:00.663565,-0.00341796875,-0.0166015625,1.00146484375,-1.8597560975609757,1.4634146341463417,0.27439024390243905
00:00:00.668875,0.004638671875,-0.004638671875,0.998291015625,-1.9512195121951221,1.4939024390243905,0.3353658536585366
00:00:00.674276,0.0009765625,-0.016357421875,1.003662109375,-1.7987804878048783,1.6463414634146343,0.27439024390243905
00:00:00.679797,0.00830078125,-0.011474609375,1.008056640625,-2.0426829268292686,1.5548780487804879,0.27439024390243905
00:00:00.685225,0.003173828125,-0.01416015625,1.001708984375,-1.7987804878048783,1.3719512195121952,0.27439024390243905
00:00:00.690531,0.002685546875,0.0,1.000244140625,-2.0426829268292686,1.4634146341463417,0.30487804878048785
00:00:00.696758,-0.005615234375,-0.010498046875,0.998046875,-1.8597560975609757,1.3719512195121952,0.24390243902439027
00:00:00.701340,0.005615234375,-0.001953125,0.99658203125,-1.9207317073170733,1.402439024390244,0.3353658536585366
00:00:00.706674,-0.0048828125,-0.017333984375,1.00927734375,-1.981707317073171,1.3719512195121952,0.3658536585365854
00:00:00.712110,0.005859375,-0.008544921875,1.003662109375,-1.981707317073171,1.402439024390244,0.3353658536585366
00:00:00.717439,0.0009765625,-0.015380859375,1.008056640625,-2.0121951219512195,1.5243902439024393,0.27439024390243905
00:00:00.722763,0.005126953125,-0.01123046875,0.995361328125,-1.9512195121951221,1.6463414634146343,0.15243902439024393
00:00:00.727966,-0.005615234375,-0.010498046875,1.0,-2.073170731707317,1.3109756097560976,0.30487804878048785
00:00:00.734534,0.01025390625,-0.0107421875,1.001953125,-1.9207317073170733,1.5853658536585367,0.24390243902439027
00:00:00.739981,-0.00390625,-0.021240234375,1.00732421875,-1.8902439024390245,1.5548780487804879,0.15243902439024393
00:00:00.745256,0.005126953125,-0.009765625,1.004150390625,-1.9512195121951221,1.3719512195121952,0.24390243902439027
00:00:00.750470,-0.00048828125,-0.015625,1.00537109375,-2.0426829268292686,1.3719512195121952,0.3353658536585366
00:00:00.755754,0.002197265625,-0.0087890625,1.006103515625,-1.9207317073170733,1.3719512195121952,0.3353658536585366
00:00:00.760960,0.005126953125,-0.012939453125,1.001708984375,-1.8902439024390245,1.4939024390243905,0.2134146341463415
00:00:00.766137,-0.000732421875,-0.0087890625,1.00244140625,-1.8902439024390245,1.4939024390243905,0.39634146341463417
00:00:00.771587,0.005126953125,-0.01123046875,1.0048828125,-1.9207317073170733,1.829268292682927,0.30487804878048785
00:00:00.777076,0.00146484375,-0.010986328125,1.0,-1.981707317073171,1.4939024390243905,0.3658536585365854
00:00:00.782640,-0.00048828125,-0.01513671875,1.01025390625,-1.9207317073170733,1.5853658536585367,0.3658536585365854
00:00:00.788208,0.001220703125,-0.008544921875,0.998291015625,-1.981707317073171,1.4939024390243905,0.3353658536585366
00:00:00.793493,-0.004150390625,-0.016357421875,1.011962890625,-2.073170731707317,1.5548780487804879,0.24390243902439027
00:00:00.799025,0.00634765625,-0.012939453125,1.002685546875,-1.9512195121951221,1.5243902439024393,0.39634146341463417
00:00:00.804246,-0.000732421875,-0.005859375,0.999755859375,-1.981707317073171,1.5548780487804879,0.3658536585365854
00:00:00.809647,-0.00048828125,-0.0107421875,0.991455078125,-1.8597560975609757,1.3414634146341464,0.48780487804878053
00:00:00.814891,0.0029296875,-0.007568359375,1.00390625,-1.981707317073171,1.5243902439024393,0.3658536585365854
00:00:00.820178,-0.00244140625,-0.01025390625,1.0087890625,-1.829268292682927,1.3109756097560976,0.39634146341463417
00:00:00.825423,0.007080078125,-0.010986328125,1.000732421875,-2.103658536585366,1.707317073170732,0.27439024390243905
00:00:00.830626,-0.0068359375,-0.01416015625,1.0078125,-1.7378048780487807,1.4329268292682928,0.15243902439024393
00:00:00.835777,0.00244140625,-0.013427734375,0.999267578125,-1.9512195121951221,1.6463414634146343,0.27439024390243905
00:00:00.840951,-0.005126953125,-0.013427734375,1.007080078125,-1.8902439024390245,1.4939024390243905,0.39634146341463417
00:00:00.846421,0.0029296875,-0.006103515625,0.998291015625,-2.073170731707317,1.5243902439024393,0.426829268292683
00:00:00.851831,-0.005126953125,-0.011474609375,1.011474609375,-1.981707317073171,1.4939024390243905,0.27439024390243905
00:00:00.857199,0.00048828125,-0.005615234375,1.00048828125,-2.073170731707317,1.5548780487804879,0.3353658536585366
00:00:00.862394,-0.00390625,-0.0185546875,1.012451171875,-2.0121951219512195,1.4329268292682928,0.30487804878048785
00:00:00.867580,0.00732421875,-0.010009765625,0.99951171875,-1.829268292682927,1.4634146341463417,0.3353658536585366
00:00:00.872808,0.001708984375,-0.015625,0.996826171875,-2.0426829268292686,1.4634146341463417,0.30487804878048785
00:00:00.878025,0.008544921875,-0.01171875,1.0009765625,-1.8597560975609757,1.4634146341463417,0.27439024390243905
00:00:00.883482,0.00244140625,-0.01220703125,1.015869140625,-1.981707317073171,1.5548780487804879,0.3353658536585366
00:00:00.889780,0.00439453125,-0.006103515625,0.99560546875,-2.0426829268292686,1.5243902439024393,0.3658536585365854
00:00:00.894192,-0.00537109375,-0.013916015625,1.011962890625,-2.0121951219512195,1.3719512195121952,0.30487804878048785
00:00:00.899542,0.010009765625,-0.011962890625,1.01171875,-1.7378048780487807,1.2804878048780488,0.2134146341463415
00:00:00.904848,0.002197265625,-0.007080078125,1.01904296875,-1.9512195121951221,1.4634146341463417,0.27439024390243905
00:00:00.910064,-0.00341796875,-0.016357421875,1.00634765625,-1.7378048780487807,1.5243902439024393,0.39634146341463417
00:00:00.915496,0.003173828125,-0.009033203125,0.99853515625,-2.0426829268292686,1.6463414634146343,0.27439024390243905
00:00:00.920772,-0.001220703125,-0.014892578125,1.00732421875,-1.7987804878048783,1.6158536585365855,0.1829268292682927
00:00:00.926044,0.00537109375,-0.008544921875,0.999755859375,-2.1341463414634148,1.6463414634146343,0.3353658536585366
00:00:00.931375,0.000244140625,-0.01025390625,0.994384765625,-1.9512195121951221,1.3414634146341464,0.39634146341463417
00:00:00.936587,-0.000244140625,-0.002685546875,0.997314453125,-1.7987804878048783,1.4634146341463417,0.3353658536585366
00:00:00.941772,-0.005615234375,-0.011474609375,1.011474609375,-1.7987804878048783,1.3719512195121952,0.27439024390243905
00:00:00.946978,0.001953125,-0.005126953125,1.0068359375,-1.8902439024390245,1.5243902439024393,0.3353658536585366
00:00:00.952373,-0.00341796875,-0.0126953125,1.002685546875,-1.7987804878048783,1.3719512195121952,0.24390243902439027
00:00:00.957856,-0.002197265625,-0.0087890625,0.996826171875,-2.0121951219512195,1.676829268292683,0.3353658536585366
00:00:00.963252,-0.0029296875,-0.014404296875,1.01318359375,-2.073170731707317,1.5548780487804879,0.39634146341463417
00:00:00.969040,0.0048828125,-0.009765625,0.99853515625,-1.9512195121951221,1.5548780487804879,0.30487804878048785
00:00:00.974427,-0.007568359375,-0.010986328125,1.002685546875,-1.9207317073170733,1.4634146341463417,0.27439024390243905
00:00:00.979764,-0.00146484375,-0.009521484375,1.00048828125,-1.9207317073170733,1.7682926829268295,0.27439024390243905
00:00:00.985120,-0.00341796875,-0.012939453125,0.9970703125,-1.8902439024390245,1.402439024390244,0.24390243902439027
00:00:00.990448,0.001708984375,-0.013427734375,0.999267578125,-1.9207317073170733,1.6463414634146343,0.4573170731707317
00:00:00.996189,-0.00048828125,-0.01025390625,0.9951171875,-1.8902439024390245,1.6463414634146343,0.5182926829268293
00:00:01.001382,0.00048828125,-0.00830078125,0.993408203125,-2.0121951219512195,1.676829268292683,0.30487804878048785
00:00:01.006772,-0.0009765625,-0.0126953125,1.016357421875,-1.8597560975609757,1.5853658536585367,0.24390243902439027
00:00:01.012064,0.00146484375,-0.0068359375,0.994140625,-1.8902439024390245,1.5243902439024393,0.3353658536585366
00:00:01.017784,-0.00244140625,-0.015869140625,1.00927734375,-1.981707317073171,1.6463414634146343,0.2134146341463415
00:00:01.023099,0.003173828125,-0.006591796875,0.9970703125,-1.9207317073170733,1.707317073170732,0.24390243902439027
00:00:01.028374,-0.00146484375,-0.01611328125,1.015380859375,-1.981707317073171,1.402439024390244,0.27439024390243905
00:00:01.033776,0.003662109375,-0.005859375,1.001953125,-1.9512195121951221,1.5243902439024393,0.39634146341463417
00:00:01.039500,-0.00537109375,-0.011962890625,0.999267578125,-1.8902439024390245,1.5548780487804879,0.27439024390243905
00:00:01.044820,0.004150390625,-0.006103515625,1.0009765625,-1.9512195121951221,1.402439024390244,0.30487804878048785
00:00:01.050008,-0.00341796875,-0.010009765625,1.010498046875,-1.9207317073170733,1.4634146341463417,0.39634146341463417
00:00:01.055240,0.004150390625,-0.01416015625,1.005615234375,-1.7682926829268295,1.6463414634146343,0.2134146341463415
00:00:01.060441,-0.004638671875,-0.015625,1.0107421875,-2.164634146341464,1.5548780487804879,0.1829268292682927
00:00:01.065811,0.001953125,-0.005859375,1.00537109375,-1.981707317073171,1.3109756097560976,0.1829268292682927
00:00:01.071492,-0.006103515625,-0.021484375,1.015625,-1.981707317073171,1.5243902439024393,0.426829268292683
00:00:01.076877,0.00341796875,-0.008544921875,0.986572265625,-1.9207317073170733,1.4329268292682928,0.3353658536585366
00:00:01.082219,-0.004150390625,-0.01123046875,1.0068359375,-1.981707317073171,1.676829268292683,0.27439024390243905
00:00:01.087482,0.007080078125,-0.009033203125,1.001708984375,-1.707317073170732,1.5243902439024393,0.30487804878048785
00:00:01.092711,-0.000732421875,-0.010009765625,1.0048828125,-2.1341463414634148,1.676829268292683,0.27439024390243905
00:00:01.097904,-0.0029296875,-0.012939453125,0.999267578125,-2.0121951219512195,1.2804878048780488,0.09146341463414635
00:00:01.103188,-0.000732421875,-0.013427734375,0.996337890625,-2.0426829268292686,1.402439024390244,0.30487804878048785
00:00:01.108552,-0.00048828125,-0.009033203125,1.007080078125,-1.8597560975609757,1.5853658536585367,0.39634146341463417
00:00:01.113915,0.01025390625,-0.00830078125,0.9931640625,-2.0426829268292686,1.6463414634146343,0.2134146341463415
00:00:01.119256,-0.007568359375,-0.016845703125,1.009033203125,-1.8902439024390245,1.4329268292682928,0.27439024390243905
00:00:01.124566,0.007568359375,-0.008056640625,1.004638671875,-2.103658536585366,1.6158536585365855,0.27439024390243905
00:00:01.129913,-0.001708984375,-0.016845703125,1.00439453125,-1.8902439024390245,1.3719512195121952,0.30487804878048785
00:00:01.135183,0.002685546875,-0.007080078125,0.994873046875,-1.981707317073171,1.7378048780487807,0.48780487804878053
00:00:01.140547,-0.00537109375,-0.01806640625,1.01123046875,-1.8902439024390245,1.4634146341463417,0.1829268292682927
00:00:01.145979,0.003662109375,-0.0087890625,1.00146484375,-2.073170731707317,1.707317073170732,0.3353658536585366
00:00:01.151309,-0.0087890625,-0.01416015625,1.015380859375,-1.8597560975609757,1.5548780487804879,0.426829268292683
00:00:01.156645,0.000732421875,-0.00732421875,0.996337890625,-1.7987804878048783,1.4939024390243905,0.27439024390243905
00:00:01.161850,-0.010986328125,-0.01220703125,1.0078125,-1.7987804878048783,1.6158536585365855,0.2134146341463415
00:00:01.167034,0.003173828125,-0.009033203125,1.001708984375,-1.829268292682927,1.5243902439024393,0.3658536585365854
00:00:01.172219,0.0,-0.0126953125,1.008544921875,-2.103658536585366,1.5548780487804879,0.2134146341463415
00:00:01.177692,0.00048828125,-0.009033203125,0.99560546875,-2.0426829268292686,1.4329268292682928,0.1829268292682927
00:00:01.183248,0.001220703125,-0.008056640625,1.009765625,-2.0426829268292686,1.5243902439024393,0.3658536585365854
00:00:01.188711,-0.003662109375,-0.008056640625,1.002197265625,-2.0426829268292686,1.4329268292682928,0.3658536585365854
00:00:01.194345,-0.00048828125,-0.0146484375,1.009521484375,-2.0426829268292686,1.5548780487804879,0.2134146341463415
00:00:01.199588,0.0009765625,-0.0107421875,1.00537109375,-1.8902439024390245,1.4329268292682928,0.1829268292682927
00:00:01.204913,-0.005126953125,-0.01708984375,0.999755859375,-2.0426829268292686,1.5548780487804879,0.15243902439024393
00:00:01.210456,-0.00537109375,-0.010986328125,1.007568359375,-1.8597560975609757,1.3719512195121952,0.12195121951219513
00:00:01.215771,-0.000732421875,-0.012451171875,1.008544921875,-2.0121951219512195,1.5548780487804879,0.39634146341463417
00:00:01.221195,0.00048828125,-0.016845703125,1.006103515625,-1.9207317073170733,1.5853658536585367,0.3658536585365854
00:00:01.226778,0.006103515625,-0.01953125,0.998046875,-1.9512195121951221,1.5853658536585367,0.24390243902439027
00:00:01.232044,-0.004638671875,-0.0107421875,1.005859375,-1.829268292682927,1.2500000000000002,0.3353658536585366
00:00:01.237291,0.000732421875,-0.009521484375,0.9970703125,-1.829268292682927,1.6463414634146343,0.426829268292683
00:00:01.242569,-0.0048828125,-0.006591796875,1.0048828125,-1.9207317073170733,1.402439024390244,0.30487804878048785
00:00:01.247939,-0.00146484375,-0.013427734375,1.010498046875,-2.0426829268292686,1.676829268292683,0.12195121951219513
00:00:01.253403,-0.001953125,-0.012939453125,1.00439453125,-1.9207317073170733,1.4634146341463417,0.3658536585365854
00:00:01.258898,0.00244140625,-0.01318359375,0.9970703125,-1.981707317073171,1.707317073170732,0.27439024390243905
00:00:01.264174,0.000244140625,-0.018310546875,1.00830078125,-1.8597560975609757,1.2500000000000002,0.30487804878048785
00:00:01.269587,0.00732421875,-0.0087890625,1.00439453125,-2.073170731707317,1.5243902439024393,0.27439024390243905
00:00:01.275152,0.00146484375,-0.014892578125,1.006103515625,-1.8597560975609757,1.3109756097560976,0.39634146341463417
00:00:01.280347,0.000244140625,-0.009765625,1.009765625,-2.0426829268292686,1.5243902439024393,0.39634146341463417
00:00:01.285691,-0.001953125,-0.012939453125,1.00341796875,-1.829268292682927,1.4939024390243905,0.30487804878048785
00:00:01.291426,0.007080078125,-0.00830078125,1.003173828125,-1.7987804878048783,1.6158536585365855,0.30487804878048785
00:00:01.296447,0.002685546875,-0.014404296875,1.0087890625,-1.8597560975609757,1.3719512195121952,0.30487804878048785
00:00:01.301639,0.002685546875,-0.011962890625,1.00244140625,-1.981707317073171,1.6463414634146343,0.2134146341463415
00:00:01.306871,0.000244140625,-0.02001953125,1.0107421875,-2.0121951219512195,1.676829268292683,0.48780487804878053
00:00:01.312109,-0.002685546875,-0.0068359375,1.00341796875,-1.8902439024390245,1.4634146341463417,0.39634146341463417
00:00:01.317357,-0.004150390625,-0.0126953125,1.003662109375,-2.0121951219512195,1.402439024390244,0.39634146341463417
00:00:01.322721,0.0,-0.010498046875,0.9990234375,-1.829268292682927,1.402439024390244,0.1829268292682927
00:00:01.328156,-0.002685546875,-0.01611328125,1.003173828125,-1.9512195121951221,1.5548780487804879,0.24390243902439027
00:00:01.333386,0.01123046875,-0.008056640625,0.9931640625,-1.8902439024390245,1.3719512195121952,0.27439024390243905
00:00:01.338783,0.000244140625,-0.0146484375,1.00732421875,-2.0121951219512195,1.6158536585365855,0.3353658536585366
00:00:01.344058,0.000244140625,-0.0087890625,0.998291015625,-1.8597560975609757,1.5243902439024393,0.1829268292682927
00:00:01.349301,-0.001708984375,-0.01123046875,1.00927734375,-2.0121951219512195,1.4634146341463417,0.06097560975609757
00:00:01.354557,0.0048828125,-0.01171875,1.005126953125,-1.7378048780487807,1.4329268292682928,0.24390243902439027
00:00:01.359841,0.00146484375,-0.007080078125,1.005126953125,-2.073170731707317,1.707317073170732,0.3353658536585366
00:00:01.365206,0.0,-0.01171875,0.999267578125,-1.829268292682927,1.4329268292682928,0.3353658536585366
00:00:01.370802,0.00146484375,-0.010498046875,1.0009765625,-1.981707317073171,1.4939024390243905,0.30487804878048785
00:00:01.376648,0.007080078125,-0.008056640625,1.001708984375,-1.829268292682927,1.2500000000000002,0.426829268292683
00:00:01.381625,-0.0048828125,-0.01220703125,1.01220703125,-2.1341463414634148,1.6158536585365855,0.2134146341463415
00:00:01.386971,-0.003662109375,-0.014404296875,1.001220703125,-1.8597560975609757,1.402439024390244,0.27439024390243905
00:00:01.392403,-0.00244140625,-0.011962890625,0.993896484375,-2.1951219512195124,1.676829268292683,0.39634146341463417
00:00:01.397676,-0.001708984375,-0.01025390625,0.9990234375,-1.676829268292683,1.5243902439024393,0.24390243902439027
00:00:01.403128,0.005126953125,-0.007568359375,1.001953125,-2.0121951219512195,1.6158536585365855,0.30487804878048785
00:00:01.408516,-0.001220703125,-0.014404296875,1.001953125,-1.7682926829268295,1.4939024390243905,0.3658536585365854
00:00:01.413770,-0.000732421875,-0.0048828125,1.0078125,-2.0426829268292686,1.6463414634146343,0.2134146341463415
00:00:01.419105,-0.00048828125,-0.015380859375,0.998291015625,-2.0121951219512195,1.4634146341463417,0.3658536585365854
00:00:01.424363,0.00537109375,-0.006591796875,0.994140625,-1.8902439024390245,1.676829268292683,0.24390243902439027
00:00:01.429670,-0.00244140625,-0.013427734375,1.0068359375,-1.829268292682927,1.6463414634146343,0.24390243902439027
00:00:01.434806,0.006591796875,-0.0078125,0.991943359375,-2.0121951219512195,1.5243902439024393,0.24390243902439027
00:00:01.439966,0.00146484375,-0.0146484375,1.00341796875,-2.0426829268292686,1.4329268292682928,0.30487804878048785
00:00:01.445354,-0.000732421875,-0.00439453125,0.99658203125,-1.8597560975609757,1.3719512195121952,0.30487804878048785
00:00:01.450903,-0.001220703125,-0.01708984375,1.007080078125,-1.9512195121951221,1.5548780487804879,0.27439024390243905
00:00:01.456235,0.006103515625,-0.01025390625,0.998046875,-2.073170731707317,1.707317073170732,0.24390243902439027
00:00:01.461550,0.000732421875,-0.020263671875,1.010498046875,-1.9512195121951221,1.7378048780487807,0.1829268292682927
00:00:01.466799,0.002197265625,-0.0087890625,1.01025390625,-1.8902439024390245,1.5853658536585367,0.3353658536585366
00:00:01.471976,0.0,-0.012451171875,1.012451171875,-2.0121951219512195,1.5853658536585367,0.3353658536585366
00:00:01.477431,-0.004150390625,-0.008544921875,0.995361328125,-1.8597560975609757,1.4634146341463417,0.27439024390243905
00:00:01.483078,-0.005859375,-0.01611328125,1.00927734375,-2.1341463414634148,1.6463414634146343,0.24390243902439027
00:00:01.488655,0.00390625,-0.013671875,0.99169921875,-1.9512195121951221,1.4939024390243905,0.27439024390243905
00:00:01.495121,-0.0009765625,-0.017333984375,1.00634765625,-2.0121951219512195,1.6158536585365855,0.27439024390243905
00:00:01.500052,0.00341796875,-0.01318359375,0.998046875,-1.8597560975609757,1.5853658536585367,0.426829268292683
00:00:01.505575,-0.00048828125,-0.01611328125,1.00341796875,-2.0121951219512195,1.5853658536585367,0.3353658536585366
00:00:01.511075,0.005615234375,-0.0146484375,1.0068359375,-1.8597560975609757,1.6463414634146343,0.27439024390243905
00:00:01.516329,-0.000244140625,-0.009521484375,1.004150390625,-2.0121951219512195,1.7378048780487807,0.3353658536585366
00:00:01.521659,0.0048828125,-0.013916015625,0.9990234375,-1.6463414634146343,1.5243902439024393,0.3353658536585366
00:00:01.526837,0.000244140625,-0.011962890625,1.009765625,-1.8902439024390245,1.676829268292683,0.3658536585365854
00:00:01.532181,0.002197265625,-0.015869140625,1.005126953125,-1.9207317073170733,1.5548780487804879,0.3353658536585366
00:00:01.537381,0.013916015625,-0.014892578125,0.99560546875,-2.073170731707317,1.6158536585365855,0.1829268292682927
00:00:01.542741,0.004150390625,-0.017333984375,1.002685546875,-1.8597560975609757,1.402439024390244,0.3353658536585366
00:00:01.547933,-0.000244140625,-0.003662109375,0.99560546875,-1.829268292682927,1.6158536585365855,0.24390243902439027
00:00:01.553225,-0.0009765625,-0.02001953125,1.001953125,-1.8597560975609757,1.5853658536585367,0.27439024390243905
00:00:01.558530,0.001708984375,-0.01123046875,0.994140625,-2.103658536585366,1.5243902439024393,0.3658536585365854
00:00:01.563842,0.0,-0.017333984375,1.004638671875,-2.0426829268292686,1.4329268292682928,0.27439024390243905
00:00:01.569120,-0.00390625,-0.01025390625,0.99658203125,-2.0426829268292686,1.5243902439024393,0.30487804878048785
00:00:01.574307,-0.003662109375,-0.015380859375,1.00927734375,-1.981707317073171,1.402439024390244,0.426829268292683
00:00:01.579515,0.004638671875,-0.008056640625,0.993408203125,-1.8597560975609757,1.5853658536585367,0.3353658536585366
00:00:01.584707,-0.008544921875,-0.016357421875,1.00927734375,-1.981707317073171,1.4634146341463417,0.2134146341463415
00:00:01.590065,0.002197265625,-0.01171875,0.9970703125,-1.981707317073171,1.4329268292682928,0.1829268292682927
00:00:01.595486,-0.007568359375,-0.01123046875,1.003662109375,-1.8902439024390245,1.4634146341463417,0.3658536585365854
00:00:01.600726,0.0029296875,-0.006103515625,1.013916015625,-1.7378048780487807,1.402439024390244,0.3658536585365854
00:00:01.606288,-0.003173828125,-0.013427734375,0.996337890625,-2.073170731707317,1.402439024390244,0.1829268292682927
00:00:01.611699,-0.002197265625,-0.00537109375,1.002685546875,-1.8902439024390245,1.4634146341463417,0.426829268292683
00:00:01.616946,-0.0029296875,-0.01220703125,1.01220703125,-2.0121951219512195,1.7378048780487807,0.2134146341463415
00:00:01.622237,0.00390625,-0.005126953125,1.006591796875,-1.8902439024390245,1.3414634146341464,0.39634146341463417
00:00:01.627679,-0.00244140625,-0.0087890625,1.0048828125,-2.103658536585366,1.6463414634146343,0.3658536585365854
00:00:01.632982,0.002197265625,-0.007568359375,1.008056640625,-1.7682926829268295,1.676829268292683,0.3353658536585366
00:00:01.638201,-0.002685546875,-0.013427734375,1.00048828125,-2.103658536585366,1.5853658536585367,0.2134146341463415
00:00:01.643395,-0.00390625,-0.012939453125,1.005126953125,-1.7378048780487807,1.3414634146341464,0.39634146341463417
00:00:01.648669,0.005615234375,-0.012939453125,1.009033203125,-1.981707317073171,1.6463414634146343,0.27439024390243905
00:00:01.653952,0.00537109375,-0.013916015625,1.011962890625,-1.8597560975609757,1.5853658536585367,0.27439024390243905
00:00:01.660125,-0.001708984375,-0.0078125,0.997802734375,-2.0121951219512195,1.676829268292683,0.39634146341463417
00:00:01.664491,-0.00146484375,-0.016845703125,1.007080078125,-1.829268292682927,1.3719512195121952,0.27439024390243905
00:00:01.669809,0.006591796875,-0.007568359375,1.00244140625,-1.707317073170732,1.6463414634146343,0.39634146341463417
00:00:01.675274,0.00341796875,-0.0166015625,1.00732421875,-1.7987804878048783,1.4329268292682928,0.426829268292683
00:00:01.680458,0.001708984375,-0.012451171875,0.99365234375,-2.1341463414634148,1.7378048780487807,0.27439024390243905
00:00:01.685638,-0.00146484375,-0.01611328125,1.011474609375,-1.8902439024390245,1.7378048780487807,0.30487804878048785
00:00:01.691086,0.003662109375,-0.009765625,0.994384765625,-1.981707317073171,1.7378048780487807,0.27439024390243905
00:00:01.696487,-0.00634765625,-0.015380859375,1.01025390625,-1.8597560975609757,1.5853658536585367,0.30487804878048785
00:00:01.701962,0.00146484375,-0.008056640625,1.001953125,-1.8597560975609757,1.6158536585365855,0.30487804878048785
00:00:01.707160,-0.001953125,-0.016845703125,1.008056640625,-1.9207317073170733,1.707317073170732,0.27439024390243905
00:00:01.712523,0.0048828125,-0.00830078125,0.989990234375,-2.0426829268292686,1.4939024390243905,0.3658536585365854
00:00:01.717850,-0.00634765625,-0.01806640625,1.010498046875,-1.9512195121951221,1.4329268292682928,0.24390243902439027
00:00:01.723370,0.001708984375,-0.01025390625,1.0048828125,-1.981707317073171,1.5853658536585367,0.2134146341463415
00:00:01.728655,-0.00146484375,-0.014404296875,0.996826171875,-1.981707317073171,1.5243902439024393,0.2134146341463415
00:00:01.733993,0.0078125,-0.004150390625,1.0078125,-1.9207317073170733,1.3109756097560976,0.30487804878048785
00:00:01.739332,-0.0029296875,-0.013916015625,1.0078125,-1.9512195121951221,1.6463414634146343,0.30487804878048785
00:00:01.744598,0.001220703125,-0.005859375,0.993408203125,-2.073170731707317,1.5853658536585367,0.2134146341463415
00:00:01.749948,-0.0009765625,-0.0166015625,1.0048828125,-2.0426829268292686,1.4634146341463417,0.3353658536585366
00:00:01.755176,0.004150390625,-0.01708984375,1.00146484375,-1.829268292682927,1.5243902439024393,0.30487804878048785
00:00:01.760381,0.001708984375,-0.010986328125,1.00341796875,-1.7378048780487807,1.5548780487804879,0.30487804878048785
00:00:01.765620,0.005126953125,-0.01123046875,0.9990234375,-1.7378048780487807,1.4939024390243905,0.3658536585365854
00:00:01.771149,-0.0009765625,-0.0107421875,1.00146484375,-2.073170731707317,1.3719512195121952,0.39634146341463417
00:00:01.776927,0.00537109375,-0.012939453125,1.00439453125,-1.9207317073170733,1.3109756097560976,0.39634146341463417
00:00:01.782416,-0.00244140625,-0.0107421875,1.0029296875,-1.981707317073171,1.5853658536585367,0.24390243902439027
00:00:01.788148,0.002685546875,-0.009033203125,0.993408203125,-1.7682926829268295,1.4634146341463417,0.3658536585365854
00:00:01.793601,-0.004638671875,-0.008056640625,0.99853515625,-1.9512195121951221,1.6158536585365855,0.2134146341463415
00:00:01.798702,0.000732421875,-0.006591796875,1.007568359375,-1.7682926829268295,1.6463414634146343,0.27439024390243905
00:00:01.804142,0.003173828125,-0.014892578125,1.001708984375,-2.1341463414634148,1.5243902439024393,0.2134146341463415
00:00:01.809447,-0.000732421875,-0.013671875,1.002197265625,-1.7682926829268295,1.3719512195121952,0.3658536585365854
00:00:01.814916,0.004638671875,-0.008544921875,1.000732421875,-1.981707317073171,1.6158536585365855,0.2134146341463415
00:00:01.820083,0.00048828125,-0.01513671875,1.006591796875,-1.8902439024390245,1.3109756097560976,0.12195121951219513
00:00:01.825311,0.007080078125,-0.009033203125,1.005859375,-2.103658536585366,1.4939024390243905,0.3353658536585366
00:00:01.830474,-0.00390625,-0.018310546875,1.007080078125,-1.8597560975609757,1.4939024390243905,0.30487804878048785
00:00:01.835891,0.00048828125,-0.0068359375,0.998291015625,-2.0426829268292686,1.5548780487804879,0.3658536585365854
00:00:01.841093,-0.00634765625,-0.0107421875,1.01513671875,-1.7987804878048783,1.2500000000000002,0.1829268292682927
00:00:01.846591,0.009033203125,-0.0048828125,0.993896484375,-2.0121951219512195,1.5853658536585367,0.3658536585365854
00:00:01.852026,0.002685546875,-0.015625,1.006591796875,-1.9207317073170733,1.6158536585365855,0.30487804878048785
00:00:01.857386,0.00537109375,-0.00390625,0.9921875,-1.9207317073170733,1.5853658536585367,0.3353658536585366
00:00:01.862734,0.0048828125,-0.0126953125,1.001953125,-2.0426829268292686,1.5243902439024393,0.27439024390243905
00:00:01.868051,0.001708984375,-0.008544921875,0.99658203125,-2.0426829268292686,1.5243902439024393,0.2134146341463415
00:00:01.873263,-0.00146484375,-0.014892578125,0.99658203125,-1.9512195121951221,1.4939024390243905,0.2134146341463415
00:00:01.878644,0.007080078125,-0.013427734375,1.008544921875,-1.8597560975609757,1.2804878048780488,0.3353658536585366
00:00:01.884009,-0.00439453125,-0.0224609375,1.001220703125,-1.9512195121951221,1.4939024390243905,0.27439024390243905
00:00:01.889368,0.002685546875,-0.010009765625,1.003173828125,-1.981707317073171,1.4634146341463417,0.27439024390243905
00:00:01.894920,-0.005126953125,-0.01611328125,1.0,-1.8597560975609757,1.4329268292682928,0.3658536585365854
00:00:01.900253,0.005126953125,-0.007080078125,1.002685546875,-1.9207317073170733,1.5243902439024393,0.27439024390243905
00:00:01.905522,-0.004638671875,-0.010009765625,1.006591796875,-2.0426829268292686,1.5243902439024393,0.30487804878048785
00:00:01.910848,-0.00146484375,-0.004150390625,1.005859375,-1.8902439024390245,1.3109756097560976,0.27439024390243905
00:00:01.916149,-0.007568359375,-0.00927734375,0.997314453125,-2.0121951219512195,1.5853658536585367,0.30487804878048785
00:00:01.921337,0.00146484375,-0.010498046875,1.0,-1.8902439024390245,1.4329268292682928,0.3353658536585366
00:00:01.926919,0.0009765625,-0.02197265625,0.99853515625,-1.981707317073171,1.707317073170732,0.3353658536585366
00:00:01.931948,-0.005126953125,-0.009765625,1.000244140625,-1.8902439024390245,1.3719512195121952,0.4573170731707317
00:00:01.937193,-0.001708984375,-0.01025390625,0.998779296875,-2.1341463414634148,1.5853658536585367,0.27439024390243905
00:00:01.942440,-0.00732421875,-0.01171875,1.003173828125,-1.9512195121951221,1.3109756097560976,0.39634146341463417
00:00:01.947769,0.001953125,-0.01171875,1.003173828125,-2.103658536585366,1.6463414634146343,0.3658536585365854
00:00:01.952976,-0.00390625,-0.017822265625,1.00341796875,-1.8902439024390245,1.5243902439024393,0.3353658536585366
00:00:01.958196,0.0029296875,-0.005615234375,1.001953125,-2.073170731707317,1.6158536585365855,0.12195121951219513
00:00:01.963917,-0.0048828125,-0.01025390625,1.005859375,-1.8902439024390245,1.4329268292682928,0.27439024390243905
00:00:01.969111,0.0009765625,-0.012451171875,1.008544921875,-2.0426829268292686,1.6158536585365855,0.27439024390243905
00:00:01.974378,-0.001708984375,-0.0224609375,1.0029296875,-1.7987804878048783,1.3414634146341464,0.30487804878048785
00:00:01.979779,0.006591796875,-0.010986328125,1.0009765625,-1.9512195121951221,1.5548780487804879,0.30487804878048785
00:00:01.984919,-0.001708984375,-0.01123046875,1.00439453125,-1.981707317073171,1.5853658536585367,0.3658536585365854
00:00:01.990122,0.00439453125,-0.01025390625,0.99755859375,-1.9512195121951221,1.6463414634146343,0.3658536585365854
00:00:01.995393,-0.0087890625,-0.00927734375,1.012939453125,-2.164634146341464,1.5243902439024393,0.27439024390243905
00:00:02.000789,0.0,-0.007080078125,1.000244140625,-2.0121951219512195,1.4939024390243905,0.27439024390243905
00:00:02.005877,0.002685546875,-0.015869140625,1.0029296875,-2.0121951219512195,1.5548780487804879,0.27439024390243905
00:00:02.011113,0.0,-0.008544921875,0.9892578125,-1.8597560975609757,1.3414634146341464,0.24390243902439027
00:00:02.016442,0.00048828125,-0.0126953125,1.01220703125,-1.8902439024390245,1.6463414634146343,0.30487804878048785
00:00:02.021638,-0.001953125,-0.01171875,1.006103515625,-1.8902439024390245,1.6463414634146343,0.30487804878048785
00:00:02.027040,-0.001708984375,-0.009033203125,1.0068359375,-2.103658536585366,1.676829268292683,0.24390243902439027
00:00:02.032303,0.00244140625,-0.00927734375,1.003662109375,-1.8597560975609757,1.3109756097560976,0.3353658536585366
00:00:02.037599,-0.001220703125,-0.017578125,1.00341796875,-1.981707317073171,1.7682926829268295,0.24390243902439027
00:00:02.043737,0.001220703125,-0.00830078125,0.997802734375,-1.981707317073171,1.4329268292682928,0.15243902439024393
00:00:02.048641,-0.00439453125,-0.0166015625,0.998046875,-1.981707317073171,1.6463414634146343,0.3353658536585366
00:00:02.053775,-0.001953125,-0.014404296875,1.00537109375,-1.8902439024390245,1.5853658536585367,0.30487804878048785
00:00:02.059043,0.009521484375,-0.013427734375,1.00048828125,-2.073170731707317,1.676829268292683,0.3658536585365854
00:00:02.064297,0.00048828125,-0.0126953125,1.008544921875,-1.829268292682927,1.5243902439024393,0.24390243902439027
00:00:02.069671,0.002197265625,-0.00927734375,1.00341796875,-2.2256097560975614,1.6463414634146343,0.27439024390243905
00:00:02.075113,-0.0029296875,-0.015625,1.005859375,-1.7378048780487807,1.4939024390243905,0.15243902439024393
00:00:02.080859,0.00439453125,-0.013916015625,0.99267578125,-2.103658536585366,1.4939024390243905,0.3658536585365854
00:00:02.086124,-0.001220703125,-0.017822265625,1.007568359375,-1.7987804878048783,1.5243902439024393,0.27439024390243905
00:00:02.091375,0.009521484375,-0.00732421875,1.005615234375,-2.0426829268292686,1.5243902439024393,0.30487804878048785
00:00:02.096731,0.0,-0.011474609375,1.00390625,-1.8902439024390245,1.4329268292682928,0.30487804878048785
00:00:02.102058,0.000244140625,-0.0087890625,1.001708984375,-1.7987804878048783,1.6158536585365855,0.3353658536585366
00:00:02.107461,-0.006591796875,-0.01611328125,1.0029296875,-1.7682926829268295,1.5243902439024393,0.426829268292683
00:00:02.116994,0.004150390625,-0.017822265625,1.011474609375,-2.0426829268292686,1.5243902439024393,0.30487804878048785
00:00:02.123321,0.006591796875,-0.01318359375,1.000244140625,-1.8597560975609757,1.7682926829268295,0.3353658536585366
00:00:02.128592,0.003173828125,-0.020263671875,1.007080078125,-1.9207317073170733,1.5243902439024393,0.39634146341463417
00:00:02.133887,0.00048828125,-0.008056640625,1.00048828125,-1.9207317073170733,1.6158536585365855,0.30487804878048785
00:00:02.139046,-0.001953125,-0.01220703125,1.00048828125,-2.103658536585366,1.5853658536585367,0.2134146341463415
00:00:02.144648,-0.00146484375,-0.01123046875,1.000244140625,-1.8902439024390245,1.3109756097560976,0.24390243902439027
00:00:02.149668,-0.002685546875,-0.012451171875,1.006103515625,-1.9512195121951221,1.5548780487804879,0.426829268292683
00:00:02.154943,0.0009765625,-0.01318359375,1.00048828125,-1.8902439024390245,1.5548780487804879,0.39634146341463417
00:00:02.160109,-0.00146484375,-0.007568359375,1.00341796875,-2.1341463414634148,1.6463414634146343,0.1829268292682927
00:00:02.165260,0.000244140625,-0.01123046875,1.001953125,-1.8902439024390245,1.5548780487804879,0.15243902439024393
00:00:02.170421,0.0087890625,-0.00390625,1.001220703125,-2.073170731707317,1.7682926829268295,0.27439024390243905
00:00:02.176621,0.003173828125,-0.010986328125,1.0068359375,-1.829268292682927,1.3109756097560976,0.1829268292682927
00:00:02.181215,0.00390625,-0.010009765625,1.00146484375,-1.9207317073170733,1.402439024390244,0.3353658536585366
00:00:02.186480,-0.000732421875,-0.01171875,1.007080078125,-1.9512195121951221,1.4634146341463417,0.39634146341463417
00:00:02.191998,0.002685546875,-0.005615234375,0.999755859375,-2.1341463414634148,1.5548780487804879,0.3658536585365854
00:00:02.197239,0.0,-0.013671875,1.0029296875,-1.6463414634146343,1.4634146341463417,0.27439024390243905
00:00:02.202413,0.003173828125,-0.01123046875,1.002685546875,-2.1341463414634148,1.402439024390244,0.2134146341463415
00:00:02.207710,-0.000244140625,-0.0166015625,1.00732421875,-1.9207317073170733,1.4329268292682928,0.3353658536585366
00:00:02.213003,0.00634765625,-0.011474609375,0.999755859375,-1.7682926829268295,1.5243902439024393,0.27439024390243905
00:00:02.218277,-0.0029296875,-0.014892578125,1.004638671875,-2.0426829268292686,1.4939024390243905,0.30487804878048785
00:00:02.223688,0.00634765625,-0.010009765625,0.9951171875,-1.829268292682927,1.5853658536585367,0.27439024390243905
00:00:02.228963,0.001220703125,-0.016845703125,1.00146484375,-1.9207317073170733,1.676829268292683,0.30487804878048785
00:00:02.234278,0.011474609375,-0.009033203125,0.99755859375,-1.8902439024390245,1.402439024390244,0.24390243902439027
00:00:02.239501,-0.0107421875,-0.01220703125,1.00927734375,-2.0121951219512195,1.5853658536585367,0.15243902439024393
00:00:02.244781,0.00439453125,-0.00634765625,0.9951171875,-1.829268292682927,1.5548780487804879,0.3658536585365854
00:00:02.250245,-0.00439453125,-0.015625,1.0,-2.0426829268292686,1.4634146341463417,0.3658536585365854
00:00:02.255768,0.003173828125,-0.006591796875,0.995849609375,-1.8902439024390245,1.4634146341463417,0.426829268292683
00:00:02.260972,0.004150390625,-0.01708984375,1.006591796875,-2.164634146341464,1.5853658536585367,0.27439024390243905
00:00:02.266304,0.005126953125,-0.00732421875,1.002685546875,-1.9207317073170733,1.4634146341463417,0.30487804878048785
00:00:02.271842,-0.001220703125,-0.01025390625,1.012939453125,-1.981707317073171,1.676829268292683,0.2134146341463415
00:00:02.277142,0.002685546875,-0.01611328125,1.001953125,-1.8597560975609757,1.3109756097560976,0.24390243902439027
00:00:02.282634,-0.00732421875,-0.014404296875,1.0,-2.0121951219512195,1.5243902439024393,0.2134146341463415
00:00:02.288553,-0.00341796875,-0.008056640625,0.996337890625,-1.8902439024390245,1.5243902439024393,0.27439024390243905
00:00:02.293713,0.00244140625,-0.012451171875,1.006591796875,-2.0426829268292686,1.5853658536585367,0.426829268292683
00:00:02.299125,0.002685546875,-0.016357421875,1.0048828125,-1.9207317073170733,1.5243902439024393,0.3658536585365854
00:00:02.304382,0.00048828125,-0.01416015625,1.010009765625,-2.0426829268292686,1.5548780487804879,0.2134146341463415
00:00:02.309709,-0.00048828125,-0.01904296875,0.997314453125,-1.829268292682927,1.4634146341463417,0.39634146341463417
00:00:02.315112,-0.001220703125,-0.012451171875,1.010009765625,-2.2256097560975614,1.5853658536585367,0.30487804878048785
00:00:02.320305,0.002197265625,-0.015625,0.9990234375,-1.9207317073170733,1.3109756097560976,0.39634146341463417
00:00:02.325515,0.000732421875,-0.003662109375,0.9892578125,-1.9207317073170733,1.5853658536585367,0.27439024390243905
00:00:02.330748,-0.00390625,-0.02197265625,1.0107421875,-1.9207317073170733,1.4329268292682928,0.24390243902439027
00:00:02.335964,0.004150390625,-0.01171875,1.00341796875,-2.073170731707317,1.707317073170732,0.2134146341463415
00:00:02.341075,-0.00537109375,-0.01123046875,1.007568359375,-1.981707317073171,1.5548780487804879,0.3353658536585366
00:00:02.346272,0.00537109375,-0.008056640625,0.999755859375,-1.8902439024390245,1.4939024390243905,0.24390243902439027
00:00:02.351440,0.0029296875,-0.017333984375,1.006591796875,-2.0426829268292686,1.5548780487804879,0.4573170731707317
00:00:02.356825,0.007568359375,-0.008544921875,0.99267578125,-2.1341463414634148,1.6158536585365855,0.2134146341463415
00:00:02.362126,-0.0029296875,-0.012939453125,1.001953125,-2.0426829268292686,1.6158536585365855,0.30487804878048785
00:00:02.367544,-0.000244140625,-0.009765625,0.9951171875,-1.9512195121951221,1.4329268292682928,0.39634146341463417
00:00:02.372652,-0.001708984375,-0.013427734375,1.011474609375,-2.0121951219512195,1.5243902439024393,0.48780487804878053
00:00:02.377835,0.002197265625,-0.015380859375,1.00634765625,-2.073170731707317,1.4939024390243905,0.27439024390243905
00:00:02.383074,0.000732421875,-0.011962890625,1.0107421875,-2.073170731707317,1.6463414634146343,0.27439024390243905
00:00:02.388306,0.002685546875,-0.013671875,0.99169921875,-1.8597560975609757,1.2804878048780488,0.1829268292682927
00:00:02.394073,-0.00439453125,-0.0107421875,1.003662109375,-2.103658536585366,1.707317073170732,0.27439024390243905
00:00:02.399611,0.004638671875,-0.009765625,1.002197265625,-1.829268292682927,1.6158536585365855,0.3353658536585366
00:00:02.405034,0.000732421875,-0.01025390625,1.0078125,-2.1341463414634148,1.6158536585365855,0.1829268292682927
00:00:02.410379,0.0078125,-0.008544921875,1.008056640625,-1.8597560975609757,1.5853658536585367,0.3658536585365854
00:00:02.415691,-0.001953125,-0.012939453125,1.004150390625,-2.164634146341464,1.7987804878048783,0.4573170731707317
00:00:02.420854,0.005859375,-0.011962890625,1.004150390625,-1.829268292682927,1.4329268292682928,0.24390243902439027
00:00:02.426195,0.0,-0.004638671875,1.0009765625,-2.0121951219512195,1.6463414634146343,0.27439024390243905
00:00:02.431543,0.000244140625,-0.01025390625,1.00732421875,-1.7682926829268295,1.3109756097560976,0.27439024390243905
00:00:02.436849,0.002685546875,-0.010986328125,0.99853515625,-1.981707317073171,1.4634146341463417,0.24390243902439027
00:00:02.442036,0.003173828125,-0.014892578125,0.999267578125,-1.9207317073170733,1.6463414634146343,0.3658536585365854
00:00:02.447232,0.005615234375,-0.0048828125,1.002685546875,-1.8902439024390245,1.7378048780487807,0.27439024390243905
00:00:02.452403,-0.00439453125,-0.01171875,1.003662109375,-1.9207317073170733,1.4939024390243905,0.3658536585365854
00:00:02.457619,0.00439453125,-0.01171875,0.99560546875,-1.981707317073171,1.6158536585365855,0.3658536585365854
00:00:02.462865,-0.004638671875,-0.01708984375,1.010009765625,-1.9512195121951221,1.4329268292682928,0.426829268292683
00:00:02.468165,0.004150390625,-0.00927734375,0.997314453125,-1.9512195121951221,1.4329268292682928,0.27439024390243905
00:00:02.473501,-0.002685546875,-0.017578125,1.013916015625,-2.0121951219512195,1.3414634146341464,0.24390243902439027
00:00:02.478916,0.0,-0.008544921875,0.991943359375,-1.9512195121951221,1.4939024390243905,0.3658536585365854
00:00:02.484185,0.000732421875,-0.01220703125,1.0029296875,-2.0121951219512195,1.6463414634146343,0.2134146341463415
00:00:02.489395,0.007568359375,-0.007080078125,0.9990234375,-1.981707317073171,1.5853658536585367,0.1829268292682927
00:00:02.494941,-0.001953125,-0.019775390625,1.007568359375,-1.829268292682927,1.4939024390243905,0.3658536585365854
00:00:02.500875,0.009521484375,-0.004150390625,0.998291015625,-1.9207317073170733,1.6463414634146343,0.30487804878048785
00:00:02.505834,-0.003662109375,-0.021484375,1.013671875,-1.9512195121951221,1.3414634146341464,0.2134146341463415
00:00:02.511452,0.008544921875,-0.01025390625,0.99267578125,-1.8902439024390245,1.4634146341463417,0.30487804878048785
00:00:02.516614,0.001953125,-0.014404296875,1.016845703125,-1.981707317073171,1.7682926829268295,0.30487804878048785
00:00:02.521957,-0.001953125,-0.01123046875,1.006103515625,-1.829268292682927,1.4329268292682928,0.1829268292682927
00:00:02.527353,-0.002197265625,-0.015869140625,0.994873046875,-2.103658536585366,1.7378048780487807,0.2134146341463415
00:00:02.532608,0.008056640625,-0.013427734375,1.0,-1.9207317073170733,1.4329268292682928,0.3353658536585366
00:00:02.537905,0.0048828125,-0.01123046875,1.01611328125,-1.9207317073170733,1.676829268292683,0.27439024390243905
00:00:02.543418,0.0029296875,-0.008056640625,1.001953125,-1.9512195121951221,1.3719512195121952,0.3658536585365854
00:00:02.548675,0.001953125,-0.011962890625,0.999755859375,-1.981707317073171,1.676829268292683,0.4573170731707317
00:00:02.553966,-0.00537109375,-0.0107421875,1.00146484375,-1.9207317073170733,1.402439024390244,0.3658536585365854
00:00:02.559278,0.0009765625,-0.00634765625,0.989501953125,-2.0121951219512195,1.6463414634146343,0.3353658536585366
00:00:02.564751,-0.001220703125,-0.015625,1.007568359375,-1.829268292682927,1.5853658536585367,0.24390243902439027
00:00:02.569984,0.001708984375,-0.016845703125,0.998291015625,-1.829268292682927,1.4939024390243905,0.3658536585365854
00:00:02.575330,0.009033203125,-0.015625,1.00146484375,-1.829268292682927,1.4634146341463417,0.2134146341463415
00:00:02.581035,0.005126953125,-0.010009765625,0.999267578125,-1.9207317073170733,1.676829268292683,0.2134146341463415
00:00:02.586445,0.0009765625,-0.013427734375,1.010009765625,-1.7987804878048783,1.402439024390244,0.3353658536585366
00:00:02.591879,-0.0009765625,-0.0087890625,1.007568359375,-2.164634146341464,1.4634146341463417,0.2134146341463415
00:00:02.597412,-0.0009765625,-0.010986328125,1.01025390625,-2.0426829268292686,1.4939024390243905,0.30487804878048785
00:00:02.603201,-0.0029296875,-0.006591796875,1.009033203125,-2.0426829268292686,1.7378048780487807,0.27439024390243905
00:00:02.608411,0.001953125,-0.013427734375,1.00048828125,-1.9512195121951221,1.5243902439024393,0.30487804878048785
00:00:02.613778,0.00341796875,-0.007080078125,1.005859375,-2.103658536585366,1.5548780487804879,0.24390243902439027
00:00:02.623128,0.00927734375,-0.010498046875,1.0009765625,-1.8902439024390245,1.4634146341463417,0.3353658536585366
00:00:02.629819,-0.003173828125,-0.014404296875,1.003173828125,-1.829268292682927,1.4634146341463417,0.24390243902439027
00:00:02.635117,0.002197265625,-0.01025390625,1.00537109375,-1.9512195121951221,1.3414634146341464,0.3658536585365854
00:00:02.640410,-0.00244140625,-0.015869140625,1.010498046875,-2.0121951219512195,1.4939024390243905,0.3353658536585366
00:00:02.645619,-0.001953125,-0.005615234375,0.9990234375,-1.8902439024390245,1.5243902439024393,0.30487804878048785
00:00:02.650833,-0.00048828125,-0.016845703125,1.008056640625,-1.8597560975609757,1.7378048780487807,0.3353658536585366
00:00:02.656348,0.0029296875,-0.010009765625,1.00439453125,-1.9207317073170733,1.5548780487804879,0.30487804878048785
00:00:02.661697,0.001953125,-0.012939453125,1.00830078125,-2.073170731707317,1.5548780487804879,0.426829268292683
00:00:02.667219,0.00390625,-0.00732421875,1.00341796875,-1.8597560975609757,1.3414634146341464,0.30487804878048785
00:00:02.672601,0.001220703125,-0.017822265625,1.00341796875,-1.9512195121951221,1.5548780487804879,0.3353658536585366
00:00:02.678019,0.0009765625,-0.005859375,1.002685546875,-1.707317073170732,1.5243902439024393,0.30487804878048785
00:00:02.683339,-0.005615234375,-0.01220703125,1.013427734375,-1.9512195121951221,1.6463414634146343,0.15243902439024393
00:00:02.688549,-0.000244140625,-0.005859375,0.990966796875,-1.9207317073170733,1.4634146341463417,0.39634146341463417
00:00:02.693897,-0.00146484375,-0.01220703125,1.00927734375,-1.981707317073171,1.676829268292683,0.27439024390243905
00:00:02.699282,0.0078125,-0.004150390625,1.00732421875,-1.8597560975609757,1.5243902439024393,0.30487804878048785
00:00:02.704594,-0.00048828125,-0.015380859375,1.00537109375,-2.1341463414634148,1.5243902439024393,0.2134146341463415
00:00:02.709901,0.00537109375,-0.01025390625,1.007568359375,-1.829268292682927,1.3719512195121952,0.30487804878048785
00:00:02.715229,0.008056640625,-0.013427734375,1.0087890625,-2.0121951219512195,1.7682926829268295,0.1829268292682927
00:00:02.720654,0.00244140625,-0.019287109375,0.999267578125,-1.981707317073171,1.3109756097560976,0.3658536585365854
00:00:02.726050,0.004150390625,-0.009521484375,1.0068359375,-2.103658536585366,1.6463414634146343,0.3353658536585366
00:00:02.731745,-0.001220703125,-0.01171875,1.010009765625,-1.8597560975609757,1.4329268292682928,0.30487804878048785
00:00:02.737126,0.00390625,-0.00927734375,1.00537109375,-1.9512195121951221,1.5243902439024393,0.30487804878048785
00:00:02.742356,-0.00732421875,-0.014404296875,0.999755859375,-1.981707317073171,1.402439024390244,0.426829268292683
00:00:02.747625,0.00146484375,-0.01708984375,1.002685546875,-2.0426829268292686,1.5853658536585367,0.3658536585365854
00:00:02.752952,-0.0048828125,-0.020263671875,1.015380859375,-2.0121951219512195,1.4634146341463417,0.24390243902439027
00:00:02.758146,0.002685546875,-0.01220703125,0.998291015625,-1.9207317073170733,1.5548780487804879,0.2134146341463415
00:00:02.763370,-0.006103515625,-0.0107421875,1.003662109375,-1.9207317073170733,1.5548780487804879,0.24390243902439027
00:00:02.768700,0.004638671875,-0.0126953125,1.00048828125,-1.829268292682927,1.5548780487804879,0.39634146341463417
00:00:02.774200,-0.00390625,-0.01220703125,1.00146484375,-1.981707317073171,1.5243902439024393,0.24390243902439027
00:00:02.779577,-0.0009765625,-0.012939453125,0.995361328125,-2.103658536585366,1.5853658536585367,0.2134146341463415
00:00:02.785094,-0.0087890625,-0.017578125,1.002197265625,-2.0121951219512195,1.4634146341463417,0.30487804878048785
00:00:02.790668,-0.00048828125,-0.009521484375,1.004150390625,-1.8597560975609757,1.5853658536585367,0.3353658536585366
00:00:02.796044,-0.005126953125,-0.023681640625,1.012939453125,-1.7682926829268295,1.4329268292682928,0.24390243902439027
00:00:02.801355,0.004150390625,-0.009521484375,0.997314453125,-1.981707317073171,1.6463414634146343,0.3658536585365854
00:00:02.806896,-0.0068359375,-0.013671875,1.000244140625,-1.981707317073171,1.4634146341463417,0.30487804878048785
00:00:02.813470,0.005615234375,-0.011474609375,1.00341796875,-2.164634146341464,1.676829268292683,0.24390243902439027
00:00:02.818806,-0.001953125,-0.015625,0.997314453125,-1.8597560975609757,1.4634146341463417,0.48780487804878053
00:00:02.824070,0.004638671875,-0.005859375,0.994873046875,-1.9512195121951221,1.6463414634146343,0.15243902439024393
00:00:02.829265,-0.009765625,-0.015380859375,1.002197265625,-1.7987804878048783,1.676829268292683,0.3658536585365854
00:00:02.834586,0.00244140625,-0.001220703125,1.00341796875,-1.9512195121951221,1.4634146341463417,0.3353658536585366
00:00:02.839949,-0.0048828125,-0.015869140625,1.010009765625,-1.981707317073171,1.7987804878048783,0.3658536585365854
00:00:02.845180,0.006103515625,-0.00634765625,0.9990234375,-1.981707317073171,1.6463414634146343,0.27439024390243905
00:00:02.850554,-0.004638671875,-0.013671875,1.0048828125,-2.0121951219512195,1.5243902439024393,0.27439024390243905
00:00:02.855940,0.008544921875,-0.012939453125,0.999755859375,-1.9512195121951221,1.5243902439024393,0.1829268292682927
00:00:02.861320,-0.00537109375,-0.009765625,1.0126953125,-1.9512195121951221,1.402439024390244,0.3658536585365854
00:00:02.866532,0.00732421875,-0.011474609375,1.00732421875,-2.0121951219512195,1.5243902439024393,0.1829268292682927
00:00:02.871768,-0.008056640625,-0.0107421875,1.001220703125,-2.0426829268292686,1.5853658536585367,0.27439024390243905
00:00:02.877117,-0.003173828125,-0.009521484375,0.999267578125,-1.9207317073170733,1.5243902439024393,0.24390243902439027
00:00:02.882498,0.00146484375,-0.004150390625,1.0068359375,-2.0121951219512195,1.4939024390243905,0.3658536585365854
00:00:02.887963,0.005615234375,-0.008544921875,0.99951171875,-1.7682926829268295,1.5243902439024393,0.30487804878048785
00:00:02.893447,-0.0009765625,-0.014404296875,0.995849609375,-2.103658536585366,1.6463414634146343,0.3658536585365854
00:00:02.904775,0.000244140625,-0.012451171875,1.004150390625,-2.1341463414634148,1.4329268292682928,0.3658536585365854
00:00:02.909626,0.007568359375,-0.00927734375,1.002685546875,-1.9207317073170733,1.4329268292682928,0.24390243902439027
00:00:02.915003,0.004150390625,-0.01123046875,0.99853515625,-1.9512195121951221,1.4329268292682928,0.3658536585365854
00:00:02.920218,0.0009765625,-0.01220703125,1.011474609375,-1.7682926829268295,1.2500000000000002,0.24390243902439027
00:00:02.925544,-0.001953125,-0.009765625,1.001708984375,-2.1341463414634148,1.4329268292682928,0.27439024390243905
00:00:02.930998,-0.00390625,-0.01611328125,1.005859375,-1.7987804878048783,1.4939024390243905,0.24390243902439027
00:00:02.936315,0.005615234375,-0.008544921875,1.00048828125,-2.073170731707317,1.5853658536585367,0.1829268292682927
00:00:02.941578,-0.009033203125,-0.011474609375,1.010009765625,-1.981707317073171,1.4939024390243905,0.426829268292683
00:00:02.946771,0.00146484375,-0.01025390625,0.998291015625,-1.9512195121951221,1.676829268292683,0.3658536585365854
00:00:02.951976,-0.00634765625,-0.0185546875,1.012939453125,-1.9512195121951221,1.5243902439024393,0.30487804878048785
00:00:02.957212,0.006103515625,-0.009521484375,0.9931640625,-1.981707317073171,1.5853658536585367,0.27439024390243905
00:00:02.962829,0.0029296875,-0.01220703125,1.004150390625,-1.7987804878048783,1.4939024390243905,0.3353658536585366
00:00:02.968038,0.0078125,-0.01025390625,0.99609375,-1.9207317073170733,1.3719512195121952,0.39634146341463417
00:00:02.973354,-0.003173828125,-0.0166015625,1.00439453125,-1.9207317073170733,1.5548780487804879,0.12195121951219513
00:00:02.978586,-0.00146484375,-0.008056640625,0.992919921875,-1.9512195121951221,1.6463414634146343,0.3353658536585366
00:00:02.983899,-0.001953125,-0.013916015625,1.009765625,-1.981707317073171,1.7378048780487807,0.30487804878048785
00:00:02.989061,0.001708984375,-0.009765625,1.000732421875,-1.829268292682927,1.3109756097560976,0.24390243902439027
00:00:02.994372,-0.00439453125,-0.012939453125,1.008544921875,-2.0426829268292686,1.5853658536585367,0.3353658536585366
00:00:02.999610,-0.000244140625,-0.006103515625,1.00927734375,-1.8902439024390245,1.402439024390244,0.27439024390243905
00:00:03.004810,-0.00732421875,-0.010986328125,0.998291015625,-1.9512195121951221,1.5853658536585367,0.30487804878048785
00:00:03.009970,-0.01025390625,-0.013671875,1.010986328125,-1.8597560975609757,1.4939024390243905,0.27439024390243905
00:00:03.015186,-0.0009765625,-0.012939453125,1.000732421875,-1.9207317073170733,1.676829268292683,0.27439024390243905
00:00:03.020392,0.000732421875,-0.008544921875,1.006591796875,-1.9207317073170733,1.3414634146341464,0.30487804878048785
00:00:03.025564,0.002685546875,-0.009765625,1.00634765625,-2.0426829268292686,1.7378048780487807,0.426829268292683
00:00:03.030839,0.0009765625,-0.014892578125,0.999755859375,-1.8597560975609757,1.4634146341463417,0.27439024390243905
00:00:03.036012,-0.00048828125,-0.012939453125,0.995849609375,-1.9512195121951221,1.6158536585365855,0.1829268292682927
00:00:03.041246,-0.001220703125,-0.017333984375,1.01318359375,-1.829268292682927,1.4329268292682928,0.3658536585365854
00:00:03.046442,-0.00146484375,-0.009033203125,1.005126953125,-1.8902439024390245,1.5853658536585367,0.1829268292682927
00:00:03.051587,0.0009765625,-0.0126953125,1.0087890625,-1.8902439024390245,1.707317073170732,0.3658536585365854
00:00:03.056780,0.006591796875,-0.009765625,0.9990234375,-2.0426829268292686,1.5243902439024393,0.24390243902439027
00:00:03.062131,-0.003662109375,-0.012939453125,1.00341796875,-1.9512195121951221,1.402439024390244,0.2134146341463415
00:00:03.067422,0.005859375,-0.0126953125,1.003662109375,-1.8902439024390245,1.5548780487804879,0.12195121951219513
00:00:03.072729,0.00390625,-0.018310546875,1.007568359375,-1.9512195121951221,1.4939024390243905,0.3353658536585366
00:00:03.077962,0.004638671875,-0.0087890625,1.00341796875,-1.981707317073171,1.4634146341463417,0.30487804878048785
00:00:03.083138,0.000732421875,-0.013916015625,1.009033203125,-2.0426829268292686,1.5548780487804879,0.39634146341463417
00:00:03.088393,0.002197265625,-0.014404296875,1.000732421875,-1.7682926829268295,1.4634146341463417,0.3658536585365854
00:00:03.093685,0.0009765625,-0.008544921875,1.01025390625,-1.981707317073171,1.5243902439024393,0.2134146341463415
00:00:03.099911,0.003173828125,-0.006591796875,0.99951171875,-1.9512195121951221,1.402439024390244,0.4573170731707317
00:00:03.104471,0.000732421875,-0.01416015625,1.008544921875,-2.0121951219512195,1.5243902439024393,0.4573170731707317
00:00:03.109716,0.001953125,-0.015380859375,0.999755859375,-1.676829268292683,1.402439024390244,0.3658536585365854
00:00:03.115152,0.000244140625,-0.011474609375,1.010009765625,-2.0426829268292686,1.7987804878048783,0.3658536585365854
00:00:03.120818,-0.000732421875,-0.0107421875,1.01416015625,-1.9512195121951221,1.676829268292683,0.27439024390243905
00:00:03.126189,0.004150390625,-0.011474609375,1.005859375,-2.164634146341464,1.6463414634146343,0.3658536585365854
00:00:03.131340,-0.009765625,-0.0146484375,1.003173828125,-1.7682926829268295,1.5243902439024393,0.27439024390243905
00:00:03.136758,-0.002197265625,-0.0126953125,1.002197265625,-1.9512195121951221,1.5548780487804879,0.3353658536585366
00:00:03.141834,-0.0029296875,-0.01123046875,1.00732421875,-1.7682926829268295,1.402439024390244,0.27439024390243905
00:00:03.147161,0.005615234375,-0.009521484375,1.002197265625,-2.1341463414634148,1.7682926829268295,0.3353658536585366
00:00:03.152420,-0.001953125,-0.01171875,1.0107421875,-1.8902439024390245,1.5548780487804879,0.2134146341463415
00:00:03.157909,0.003662109375,-0.0185546875,1.004638671875,-1.981707317073171,1.829268292682927,0.15243902439024393
00:00:03.163145,-0.001220703125,-0.011474609375,1.0126953125,-1.7987804878048783,1.4329268292682928,0.2134146341463415
00:00:03.168513,0.00048828125,-0.009521484375,1.003173828125,-1.981707317073171,1.5243902439024393,0.15243902439024393
00:00:03.174692,-0.00048828125,-0.01318359375,1.0009765625,-1.7378048780487807,1.2500000000000002,0.27439024390243905
00:00:03.180010,0.007080078125,-0.005859375,1.004150390625,-2.164634146341464,1.676829268292683,0.27439024390243905
00:00:03.185341,-0.00048828125,-0.014892578125,1.003662109375,-1.9207317073170733,1.5853658536585367,0.3353658536585366
00:00:03.190571,0.002197265625,-0.007568359375,0.992431640625,-1.981707317073171,1.6158536585365855,0.27439024390243905
00:00:03.195797,-0.001708984375,-0.009521484375,1.002197265625,-1.9207317073170733,1.6463414634146343,0.30487804878048785
00:00:03.201075,0.0078125,-0.007080078125,0.999755859375,-1.981707317073171,1.6158536585365855,0.27439024390243905
00:00:03.206697,-0.004150390625,-0.0107421875,1.000244140625,-2.0121951219512195,1.4634146341463417,0.24390243902439027
00:00:03.211804,0.005126953125,-0.010498046875,1.00244140625,-2.0121951219512195,1.4329268292682928,0.39634146341463417
00:00:03.217039,-0.00537109375,-0.00439453125,1.005126953125,-1.9207317073170733,1.6158536585365855,0.24390243902439027
00:00:03.222500,-0.002685546875,-0.013671875,1.001708984375,-1.9512195121951221,1.6158536585365855,0.27439024390243905
00:00:03.227718,-0.006103515625,-0.01416015625,1.007080078125,-2.0426829268292686,1.6158536585365855,0.3353658536585366
00:00:03.232943,-0.0029296875,-0.01123046875,1.004150390625,-1.9207317073170733,1.4634146341463417,0.3353658536585366
00:00:03.238092,0.004150390625,-0.014892578125,1.00732421875,-2.0426829268292686,1.707317073170732,0.27439024390243905
00:00:03.243388,0.005859375,-0.008056640625,1.00048828125,-1.9512195121951221,1.3719512195121952,0.27439024390243905
00:00:03.248904,-0.005126953125,-0.011962890625,1.00341796875,-2.0121951219512195,1.7682926829268295,0.30487804878048785
00:00:03.254087,-0.00244140625,-0.010986328125,1.00439453125,-1.8597560975609757,1.4634146341463417,0.3658536585365854
00:00:03.259425,0.00390625,-0.014404296875,0.987060546875,-2.0426829268292686,1.6463414634146343,0.3353658536585366
00:00:03.264658,-0.00146484375,-0.016845703125,1.010498046875,-1.981707317073171,1.5548780487804879,0.3353658536585366
00:00:03.269948,0.005126953125,-0.008056640625,0.99951171875,-1.8902439024390245,1.5853658536585367,0.30487804878048785
00:00:03.275213,-0.005859375,-0.01416015625,1.006591796875,-2.0121951219512195,1.4634146341463417,0.27439024390243905
00:00:03.280757,0.0078125,-0.00732421875,1.00146484375,-2.073170731707317,1.5243902439024393,0.3353658536585366
00:00:03.286299,0.0029296875,-0.013916015625,1.001953125,-2.0121951219512195,1.128048780487805,0.30487804878048785
00:00:03.291838,0.000244140625,-0.01025390625,1.001708984375,-2.0121951219512195,1.5548780487804879,0.3353658536585366
00:00:03.297129,-0.006591796875,-0.012451171875,0.999755859375,-1.8902439024390245,1.3414634146341464,0.3658536585365854
00:00:03.302900,0.00634765625,-0.008056640625,0.9970703125,-2.073170731707317,1.707317073170732,0.30487804878048785
00:00:03.308168,-0.0009765625,-0.020263671875,1.00537109375,-1.829268292682927,1.4329268292682928,0.24390243902439027
00:00:03.313480,0.007080078125,-0.004638671875,0.9970703125,-2.0426829268292686,1.5853658536585367,0.2134146341463415
00:00:03.319007,-0.0029296875,-0.01171875,1.014404296875,-1.8902439024390245,1.4939024390243905,0.3658536585365854
00:00:03.324328,0.007080078125,-0.01025390625,0.998046875,-1.981707317073171,1.5853658536585367,0.27439024390243905
00:00:03.329925,-0.004638671875,-0.013916015625,1.00732421875,-1.7682926829268295,1.5243902439024393,0.27439024390243905
00:00:03.335230,0.006591796875,-0.010009765625,1.002197265625,-1.981707317073171,1.5548780487804879,0.1829268292682927
00:00:03.340508,-0.00048828125,-0.015625,1.007080078125,-2.1341463414634148,1.4634146341463417,0.3658536585365854
00:00:03.345791,0.000732421875,-0.011474609375,0.99658203125,-2.0121951219512195,1.4329268292682928,0.3658536585365854
00:00:03.350967,-0.00537109375,-0.012939453125,1.001953125,-2.0426829268292686,1.6463414634146343,0.3353658536585366
00:00:03.356138,-0.0009765625,-0.006591796875,1.00634765625,-1.981707317073171,1.5548780487804879,0.3353658536585366
00:00:03.362490,-0.013427734375,-0.01220703125,1.00634765625,-1.8597560975609757,1.5853658536585367,0.3658536585365854
00:00:03.367071,-0.002197265625,-0.0078125,1.007568359375,-1.8902439024390245,1.5548780487804879,0.30487804878048785
00:00:03.372513,-0.006103515625,-0.0126953125,1.009521484375,-2.073170731707317,1.676829268292683,0.3353658536585366
00:00:03.377829,-0.00146484375,-0.013427734375,0.9951171875,-1.8597560975609757,1.4634146341463417,0.3658536585365854
00:00:03.383393,-0.009033203125,-0.016357421875,1.007568359375,-1.981707317073171,1.5548780487804879,0.24390243902439027
00:00:03.388579,-0.000732421875,-0.00634765625,1.005126953125,-1.707317073170732,1.3719512195121952,0.27439024390243905
00:00:03.394000,-0.003662109375,-0.019287109375,1.01123046875,-2.0426829268292686,1.5853658536585367,0.30487804878048785
00:00:03.399510,0.003662109375,-0.00732421875,1.001708984375,-1.981707317073171,1.4939024390243905,0.3658536585365854
00:00:03.406107,-0.00439453125,-0.014404296875,0.997802734375,-1.9512195121951221,1.4329268292682928,0.3658536585365854
00:00:03.410203,0.004638671875,-0.015869140625,0.99755859375,-1.8902439024390245,1.4634146341463417,0.39634146341463417
00:00:03.415486,0.000244140625,-0.010009765625,1.01708984375,-2.103658536585366,1.6158536585365855,0.30487804878048785
00:00:03.420777,-0.002685546875,-0.009521484375,1.0029296875,-1.9512195121951221,1.4634146341463417,0.1829268292682927
00:00:03.426135,0.005859375,-0.005615234375,0.992919921875,-1.981707317073171,1.6158536585365855,0.39634146341463417
00:00:03.431391,-0.00634765625,-0.014404296875,1.005615234375,-1.8597560975609757,1.4329268292682928,0.30487804878048785
00:00:03.436893,0.006103515625,-0.01025390625,0.998046875,-1.7987804878048783,1.6158536585365855,0.3353658536585366
00:00:03.442205,-0.0048828125,-0.01416015625,1.002197265625,-1.9207317073170733,1.5243902439024393,0.3353658536585366
00:00:03.447451,0.002685546875,-0.007568359375,1.00390625,-1.8902439024390245,1.6158536585365855,0.27439024390243905
00:00:03.452721,-0.00390625,-0.012939453125,1.009765625,-1.981707317073171,1.5548780487804879,0.30487804878048785
00:00:03.457905,0.000732421875,-0.0078125,1.000732421875,-2.0121951219512195,1.676829268292683,0.39634146341463417
00:00:03.463109,-0.006591796875,-0.015625,1.006591796875,-1.707317073170732,1.3719512195121952,0.3658536585365854
00:00:03.468257,0.00439453125,-0.0078125,1.002685546875,-1.9207317073170733,1.3719512195121952,0.39634146341463417
00:00:03.473655,-0.00244140625,-0.013916015625,1.015869140625,-1.8902439024390245,1.5853658536585367,0.24390243902439027
00:00:03.479170,0.000244140625,-0.009765625,1.003173828125,-2.0426829268292686,1.5853658536585367,0.3353658536585366
00:00:03.484591,-0.003173828125,-0.013427734375,1.00927734375,-1.981707317073171,1.6158536585365855,0.27439024390243905
00:00:03.490251,0.005859375,-0.0078125,0.99267578125,-2.0121951219512195,1.3414634146341464,0.426829268292683
00:00:03.495383,-0.00537109375,-0.0126953125,1.002685546875,-1.8597560975609757,1.4939024390243905,0.2134146341463415
00:00:03.500626,0.00537109375,-0.0126953125,0.996826171875,-1.7682926829268295,1.402439024390244,0.24390243902439027
00:00:03.506429,-0.00048828125,-0.01416015625,1.001220703125,-2.0426829268292686,1.707317073170732,0.39634146341463417
00:00:03.511564,0.010009765625,-0.00439453125,1.008544921875,-1.8902439024390245,1.2195121951219514,0.39634146341463417
00:00:03.516967,-0.009521484375,-0.0126953125,1.0185546875,-1.981707317073171,1.3719512195121952,0.30487804878048785
00:00:03.522166,0.009033203125,-0.009521484375,1.00146484375,-1.981707317073171,1.5548780487804879,0.3353658536585366
00:00:03.527487,-0.001953125,-0.010009765625,1.007568359375,-2.0426829268292686,1.5853658536585367,0.3658536585365854
00:00:03.532755,-0.0009765625,-0.008056640625,1.002197265625,-1.9207317073170733,1.4329268292682928,0.24390243902439027
00:00:03.538299,0.0,-0.01318359375,1.009033203125,-2.0121951219512195,1.5548780487804879,0.30487804878048785
00:00:03.543691,-0.00244140625,-0.012939453125,1.0126953125,-1.7987804878048783,1.4329268292682928,0.426829268292683
00:00:03.549023,-0.00341796875,-0.011474609375,1.00732421875,-2.1341463414634148,1.5853658536585367,0.30487804878048785
00:00:03.554350,0.002197265625,-0.019287109375,1.006591796875,-1.8902439024390245,1.3414634146341464,0.27439024390243905
00:00:03.559818,-0.00244140625,-0.011962890625,1.000732421875,-2.0426829268292686,1.707317073170732,0.30487804878048785
00:00:03.565130,0.002685546875,-0.010009765625,1.005126953125,-1.829268292682927,1.3414634146341464,0.3353658536585366
00:00:03.570304,0.002197265625,-0.012939453125,0.994384765625,-2.0426829268292686,1.5548780487804879,0.3658536585365854
00:00:03.575473,-0.001953125,-0.00927734375,1.005615234375,-1.7378048780487807,1.4939024390243905,0.30487804878048785
00:00:03.580683,-0.000244140625,-0.002197265625,1.000732421875,-2.0426829268292686,1.7682926829268295,0.27439024390243905
00:00:03.586615,0.00048828125,-0.01904296875,1.0,-1.9207317073170733,1.4939024390243905,0.15243902439024393
00:00:03.591751,-0.004638671875,-0.013427734375,1.00048828125,-1.8902439024390245,1.6158536585365855,0.3353658536585366
00:00:03.597014,-0.00634765625,-0.015625,1.00537109375,-1.9207317073170733,1.4634146341463417,0.27439024390243905
00:00:03.602363,0.0009765625,-0.01025390625,0.99853515625,-1.981707317073171,1.676829268292683,0.3658536585365854
00:00:03.607731,0.000244140625,-0.01220703125,1.014892578125,-1.8597560975609757,1.4939024390243905,0.24390243902439027
00:00:03.612983,0.002197265625,-0.010986328125,1.00048828125,-1.9207317073170733,1.4939024390243905,0.39634146341463417
00:00:03.618525,-0.002685546875,-0.010986328125,1.0078125,-1.8597560975609757,1.5853658536585367,0.24390243902439027
00:00:03.626645,-0.000244140625,-0.01318359375,1.00341796875,-2.1341463414634148,1.707317073170732,0.30487804878048785
00:00:03.631341,0.002197265625,-0.013916015625,1.008544921875,-1.7987804878048783,1.4634146341463417,0.27439024390243905
00:00:03.636600,0.000244140625,-0.005859375,0.9990234375,-2.0121951219512195,1.676829268292683,0.1829268292682927
00:00:03.641826,0.002197265625,-0.015625,1.012939453125,-1.981707317073171,1.5853658536585367,0.3658536585365854
00:00:03.647029,0.005126953125,-0.0029296875,0.998046875,-2.073170731707317,1.5853658536585367,0.24390243902439027
00:00:03.652211,-0.001708984375,-0.015869140625,1.00341796875,-1.829268292682927,1.4634146341463417,0.426829268292683
00:00:03.657471,0.00048828125,-0.0068359375,1.00341796875,-1.8597560975609757,1.402439024390244,0.27439024390243905
00:00:03.662883,0.00048828125,-0.013671875,1.007080078125,-1.8597560975609757,1.402439024390244,0.30487804878048785
00:00:03.668246,-0.00048828125,-0.009033203125,0.993408203125,-1.9207317073170733,1.5548780487804879,0.27439024390243905
00:00:03.673531,-0.005859375,-0.0107421875,1.008544921875,-2.0426829268292686,1.6463414634146343,0.1829268292682927
00:00:03.678883,0.010009765625,-0.007080078125,1.00048828125,-1.981707317073171,1.4939024390243905,0.2134146341463415
00:00:03.684178,-0.0009765625,-0.017822265625,1.013427734375,-2.0426829268292686,1.707317073170732,0.24390243902439027
00:00:03.689424,0.0009765625,-0.0126953125,1.002685546875,-1.7682926829268295,1.4939024390243905,0.2134146341463415
00:00:03.694673,0.0009765625,-0.01513671875,0.999755859375,-2.0426829268292686,1.4329268292682928,0.24390243902439027
00:00:03.700040,0.01025390625,-0.005615234375,0.99951171875,-1.829268292682927,1.2500000000000002,0.30487804878048785
00:00:03.705403,-0.00537109375,-0.011962890625,1.010009765625,-2.1341463414634148,1.5548780487804879,0.27439024390243905
00:00:03.710797,0.00341796875,-0.011962890625,0.995361328125,-1.9512195121951221,1.4634146341463417,0.3658536585365854
00:00:03.716066,0.00244140625,-0.01123046875,1.0126953125,-2.0121951219512195,1.7682926829268295,0.3658536585365854
00:00:03.721374,-0.00146484375,-0.00830078125,1.002685546875,-1.8902439024390245,1.3719512195121952,0.3658536585365854
00:00:03.726614,0.00537109375,-0.01171875,0.998046875,-1.9207317073170733,1.5548780487804879,0.30487804878048785
00:00:03.731886,0.000732421875,-0.00927734375,1.007080078125,-1.8597560975609757,1.5853658536585367,0.24390243902439027
00:00:03.737221,0.0029296875,-0.006103515625,1.0107421875,-2.103658536585366,1.6158536585365855,0.3353658536585366
00:00:03.742558,-0.00341796875,-0.00634765625,0.999755859375,-1.8902439024390245,1.2804878048780488,0.27439024390243905
00:00:03.748359,0.001953125,-0.009765625,1.0078125,-2.0426829268292686,1.5243902439024393,0.24390243902439027
00:00:03.753583,-0.00341796875,-0.01806640625,1.0078125,-1.7682926829268295,1.4329268292682928,0.3353658536585366
00:00:03.758874,0.00390625,-0.006591796875,0.99169921875,-1.9207317073170733,1.5853658536585367,0.1829268292682927
00:00:03.764083,0.001708984375,-0.008544921875,1.00732421875,-1.9207317073170733,1.5243902439024393,0.3658536585365854
00:00:03.769254,0.0,-0.0078125,1.004638671875,-2.0426829268292686,1.3109756097560976,0.30487804878048785
00:00:03.774651,-0.00146484375,-0.01220703125,0.99951171875,-1.9207317073170733,1.4329268292682928,0.24390243902439027
00:00:03.780048,0.002685546875,-0.00927734375,0.994140625,-1.8902439024390245,1.6158536585365855,0.2134146341463415
00:00:03.785557,0.004150390625,-0.015380859375,0.999755859375,-1.8597560975609757,1.6158536585365855,0.24390243902439027
00:00:03.791036,-0.00146484375,-0.008056640625,0.997802734375,-2.1341463414634148,1.4329268292682928,0.3658536585365854
00:00:03.796403,-0.008056640625,-0.009521484375,1.005859375,-1.7682926829268295,1.5853658536585367,0.3658536585365854
00:00:03.801699,0.0048828125,-0.001708984375,0.99169921875,-1.981707317073171,1.4634146341463417,0.27439024390243905
00:00:03.807574,0.000244140625,-0.020751953125,1.001953125,-1.9207317073170733,1.5243902439024393,0.27439024390243905
00:00:03.812900,0.006103515625,-0.0078125,0.9970703125,-1.8597560975609757,1.6463414634146343,0.2134146341463415
00:00:03.818236,0.000244140625,-0.012451171875,1.010498046875,-2.0121951219512195,1.4634146341463417,0.2134146341463415
00:00:03.823512,-0.001708984375,-0.006103515625,1.00146484375,-1.8597560975609757,1.4939024390243905,0.27439024390243905
00:00:03.828765,0.0,-0.0166015625,1.0087890625,-1.7987804878048783,1.6463414634146343,0.3658536585365854
00:00:03.834015,0.00048828125,-0.012939453125,0.999755859375,-1.981707317073171,1.4634146341463417,0.30487804878048785
00:00:03.839701,-0.0009765625,-0.008544921875,1.00537109375,-2.103658536585366,1.6158536585365855,0.3353658536585366
00:00:03.844948,-0.000244140625,-0.00390625,1.00341796875,-1.829268292682927,1.4634146341463417,0.27439024390243905
00:00:03.850286,-0.00439453125,-0.014892578125,1.012939453125,-1.9207317073170733,1.5548780487804879,0.30487804878048785
00:00:03.855889,0.010498046875,-0.01220703125,0.996337890625,-1.981707317073171,1.5548780487804879,0.30487804878048785
00:00:03.861371,0.004150390625,-0.01123046875,0.999755859375,-1.9512195121951221,1.4634146341463417,0.24390243902439027
00:00:03.866815,0.003662109375,-0.0087890625,1.00341796875,-1.829268292682927,1.6463414634146343,0.3353658536585366
00:00:03.872202,-0.005126953125,-0.012451171875,1.0029296875,-2.164634146341464,1.4634146341463417,0.39634146341463417
00:00:03.877419,-0.000732421875,-0.014892578125,0.99853515625,-2.0121951219512195,1.4939024390243905,0.4573170731707317
00:00:03.882695,0.003173828125,-0.01025390625,1.00390625,-2.103658536585366,1.707317073170732,0.39634146341463417
00:00:03.888089,0.000244140625,-0.010498046875,1.0029296875,-1.981707317073171,1.3719512195121952,0.426829268292683
00:00:03.893428,0.0,-0.00830078125,0.99853515625,-2.164634146341464,1.6463414634146343,0.30487804878048785
00:00:03.898944,0.00390625,-0.0068359375,1.01123046875,-1.9512195121951221,1.3109756097560976,0.30487804878048785
00:00:03.904406,-0.001953125,-0.007568359375,1.011962890625,-1.981707317073171,1.7378048780487807,0.30487804878048785
00:00:03.909920,0.000244140625,-0.012451171875,1.001953125,-1.9207317073170733,1.3109756097560976,0.24390243902439027
00:00:03.915420,-0.006591796875,-0.011962890625,0.999267578125,-2.073170731707317,1.5853658536585367,0.3353658536585366
00:00:03.920692,0.005126953125,-0.020263671875,1.002685546875,-2.073170731707317,1.4329268292682928,0.3658536585365854
00:00:03.926026,-0.001953125,-0.000244140625,0.998291015625,-2.103658536585366,1.4939024390243905,0.2134146341463415
00:00:03.931572,-0.005615234375,-0.012451171875,0.9990234375,-1.9207317073170733,1.5548780487804879,0.24390243902439027
00:00:03.936848,0.00341796875,-0.010498046875,0.997314453125,-2.103658536585366,1.8597560975609757,0.30487804878048785
00:00:03.942171,0.001953125,-0.015380859375,1.005859375,-1.981707317073171,1.5853658536585367,0.27439024390243905
00:00:03.947440,0.0068359375,-0.01220703125,0.999755859375,-2.073170731707317,1.6463414634146343,0.39634146341463417
00:00:03.952588,0.001220703125,-0.0185546875,1.0029296875,-1.7682926829268295,1.3719512195121952,0.27439024390243905
00:00:03.957786,0.003662109375,-0.01513671875,0.9931640625,-2.0121951219512195,1.4939024390243905,0.30487804878048785
00:00:03.963092,-0.007568359375,-0.0166015625,1.00439453125,-2.073170731707317,1.3719512195121952,0.3658536585365854
00:00:03.968484,0.006591796875,-0.009765625,0.996337890625,-1.9512195121951221,1.4329268292682928,0.15243902439024393
00:00:03.973853,-0.0029296875,-0.01025390625,1.010009765625,-1.7987804878048783,1.4634146341463417,0.1829268292682927
00:00:03.979080,0.003173828125,-0.013427734375,0.999267578125,-1.9207317073170733,1.4939024390243905,0.27439024390243905
00:00:03.984368,-0.00146484375,-0.014892578125,1.003662109375,-2.073170731707317,1.5243902439024393,0.12195121951219513
00:00:03.989671,0.00146484375,-0.012451171875,0.99658203125,-1.7682926829268295,1.3414634146341464,0.3353658536585366
00:00:03.994969,-0.005859375,-0.011962890625,0.996826171875,-1.9207317073170733,1.402439024390244,0.5792682926829269
00:00:04.000279,0.007568359375,-0.007568359375,0.993408203125,-1.829268292682927,1.4634146341463417,0.15243902439024393
00:00:04.006219,-0.0009765625,-0.017333984375,1.009521484375,-1.8902439024390245,1.676829268292683,0.24390243902439027
00:00:04.011285,0.009033203125,-0.0087890625,1.00439453125,-2.0121951219512195,1.4634146341463417,0.3658536585365854
00:00:04.016387,-0.0029296875,-0.013671875,1.0087890625,-2.0121951219512195,1.5243902439024393,0.12195121951219513
00:00:04.021614,0.00146484375,-0.0078125,1.00537109375,-1.8902439024390245,1.3109756097560976,0.426829268292683
00:00:04.026801,-0.00537109375,-0.012451171875,1.003173828125,-2.103658536585366,1.7682926829268295,0.3353658536585366
00:00:04.031991,-0.00146484375,-0.012939453125,1.004150390625,-1.9207317073170733,1.1890243902439026,0.3353658536585366
00:00:04.037281,-0.00048828125,-0.006591796875,1.0048828125,-1.9207317073170733,1.6463414634146343,0.3353658536585366
00:00:04.042496,-0.0009765625,-0.012451171875,1.013671875,-1.7378048780487807,1.4939024390243905,0.15243902439024393
00:00:04.047813,-0.000732421875,-0.00732421875,1.0029296875,-2.0426829268292686,1.4329268292682928,0.15243902439024393
00:00:04.052942,-0.00146484375,-0.016845703125,0.99755859375,-1.9512195121951221,1.3719512195121952,0.2134146341463415
00:00:04.058074,0.005126953125,-0.0068359375,0.9931640625,-1.9512195121951221,1.7378048780487807,0.27439024390243905
00:00:04.063223,-0.007568359375,-0.010498046875,0.999755859375,-1.829268292682927,1.4634146341463417,0.24390243902439027
00:00:04.068397,0.000244140625,-0.00830078125,1.005126953125,-1.981707317073171,1.4634146341463417,0.426829268292683
00:00:04.073876,-0.00146484375,-0.016357421875,1.00732421875,-1.9207317073170733,1.6463414634146343,0.39634146341463417
00:00:04.079167,0.00341796875,-0.0126953125,1.00390625,-1.8902439024390245,1.4329268292682928,0.39634146341463417
00:00:04.084540,0.000244140625,-0.014892578125,0.9970703125,-1.8902439024390245,1.4939024390243905,0.24390243902439027
00:00:04.089738,0.001220703125,-0.013427734375,0.994384765625,-1.8902439024390245,1.5243902439024393,0.30487804878048785
00:00:04.095089,-0.00341796875,-0.01123046875,1.01513671875,-1.9207317073170733,1.6158536585365855,0.1829268292682927
00:00:04.100388,0.00537109375,-0.00439453125,0.991455078125,-1.8597560975609757,1.402439024390244,0.30487804878048785
00:00:04.106433,-0.00732421875,-0.009765625,1.01123046875,-1.9207317073170733,1.5853658536585367,0.39634146341463417
00:00:04.112041,0.0068359375,-0.0068359375,0.9970703125,-1.829268292682927,1.4939024390243905,0.3658536585365854
00:00:04.116705,-0.00048828125,-0.015625,1.015625,-2.0426829268292686,1.4329268292682928,0.3658536585365854
00:00:04.122098,0.00634765625,-0.005615234375,1.001220703125,-1.981707317073171,1.5243902439024393,0.3353658536585366
00:00:04.127598,0.005126953125,-0.01123046875,0.99609375,-1.981707317073171,1.6158536585365855,0.30487804878048785
00:00:04.132635,0.001708984375,-0.010986328125,0.990234375,-1.8597560975609757,1.5243902439024393,0.1829268292682927
00:00:04.137889,-0.00244140625,-0.010986328125,1.00390625,-1.981707317073171,1.5243902439024393,0.27439024390243905
00:00:04.143209,-0.002685546875,-0.010009765625,1.0029296875,-1.8597560975609757,1.4634146341463417,0.3658536585365854
00:00:04.148620,-0.001953125,-0.01123046875,1.01123046875,-2.073170731707317,1.6158536585365855,0.2134146341463415
00:00:04.153911,-0.002197265625,-0.016845703125,1.0068359375,-2.0121951219512195,1.4329268292682928,0.1829268292682927
00:00:04.159183,0.0029296875,-0.004150390625,0.99951171875,-1.9512195121951221,1.5853658536585367,0.27439024390243905
00:00:04.164579,0.001220703125,-0.019287109375,1.00390625,-2.073170731707317,1.3414634146341464,0.1829268292682927
00:00:04.169734,0.00390625,-0.012451171875,1.00146484375,-1.829268292682927,1.4939024390243905,0.426829268292683
00:00:04.174937,-0.002197265625,-0.013916015625,1.00830078125,-1.8597560975609757,1.3109756097560976,0.1829268292682927
00:00:04.180148,0.00341796875,-0.008544921875,0.993408203125,-1.8902439024390245,1.5243902439024393,0.24390243902439027
00:00:04.185526,-0.003173828125,-0.006103515625,1.006103515625,-1.8597560975609757,1.4939024390243905,0.39634146341463417
00:00:04.191198,0.007080078125,-0.009765625,0.997802734375,-1.9207317073170733,1.5853658536585367,0.3353658536585366
00:00:04.196485,-0.005859375,-0.013427734375,1.00830078125,-1.8902439024390245,1.3719512195121952,0.12195121951219513
00:00:04.201804,0.009521484375,-0.008056640625,1.00341796875,-1.7987804878048783,1.6463414634146343,0.3658536585365854
00:00:04.207084,-0.000244140625,-0.014892578125,1.00244140625,-1.9512195121951221,1.1890243902439026,0.30487804878048785
00:00:04.212632,0.0068359375,-0.0126953125,0.996337890625,-1.981707317073171,1.5548780487804879,0.426829268292683
00:00:04.217766,-0.000732421875,-0.013916015625,1.013671875,-1.9207317073170733,1.3719512195121952,0.3658536585365854
00:00:04.223196,-0.00537109375,-0.00927734375,0.99169921875,-2.0121951219512195,1.5548780487804879,0.24390243902439027
00:00:04.228483,-0.004150390625,-0.013916015625,1.0126953125,-2.0426829268292686,1.4329268292682928,0.39634146341463417
00:00:04.233740,-0.00390625,-0.0087890625,0.995361328125,-1.9207317073170733,1.5243902439024393,0.39634146341463417
00:00:04.239089,-0.0009765625,-0.015625,1.011474609375,-1.9207317073170733,1.707317073170732,0.2134146341463415
00:00:04.244513,0.001953125,-0.007080078125,1.0087890625,-1.829268292682927,1.5243902439024393,0.3353658536585366
00:00:04.249696,0.00146484375,-0.010986328125,1.00341796875,-2.164634146341464,1.7682926829268295,0.09146341463414635
00:00:04.254906,0.001708984375,-0.01708984375,1.00390625,-1.8597560975609757,1.3414634146341464,0.27439024390243905
00:00:04.260306,0.000244140625,-0.0185546875,1.012939453125,-2.0426829268292686,1.5548780487804879,0.3658536585365854
00:00:04.265661,0.0009765625,-0.009033203125,1.002197265625,-1.8597560975609757,1.5243902439024393,0.27439024390243905
00:00:04.271253,0.00146484375,-0.00390625,1.012939453125,-2.0121951219512195,1.6158536585365855,0.30487804878048785
00:00:04.276557,-0.00927734375,-0.01708984375,0.99951171875,-1.8597560975609757,1.402439024390244,0.3353658536585366
00:00:04.281836,0.002685546875,-0.007568359375,1.00146484375,-2.073170731707317,1.8597560975609757,0.24390243902439027
00:00:04.287056,-0.00146484375,-0.01220703125,0.997314453125,-1.8902439024390245,1.4329268292682928,0.1829268292682927
00:00:04.292645,-0.00048828125,-0.009033203125,1.005615234375,-2.073170731707317,1.7987804878048783,0.27439024390243905
00:00:04.298246,0.006591796875,-0.006103515625,1.004638671875,-1.9207317073170733,1.5853658536585367,0.3353658536585366
00:00:04.303738,0.0029296875,-0.012451171875,1.003662109375,-2.073170731707317,1.676829268292683,0.39634146341463417
00:00:04.309047,-0.004638671875,-0.007568359375,1.0126953125,-1.9512195121951221,1.4634146341463417,0.27439024390243905
00:00:04.314451,0.0009765625,-0.015625,0.9970703125,-2.0121951219512195,1.7682926829268295,0.4573170731707317
00:00:04.319788,0.00390625,-0.007568359375,0.999755859375,-1.829268292682927,1.4329268292682928,0.24390243902439027
00:00:04.325329,0.000244140625,-0.008056640625,0.998291015625,-2.0426829268292686,1.6463414634146343,0.30487804878048785
00:00:04.330424,-0.0078125,-0.01416015625,1.006591796875,-1.981707317073171,1.4634146341463417,0.2134146341463415
00:00:04.335842,0.000244140625,-0.007568359375,0.998046875,-2.0121951219512195,1.4634146341463417,0.27439024390243905
00:00:04.341341,0.000244140625,-0.010498046875,1.010986328125,-1.8597560975609757,1.5243902439024393,0.39634146341463417
00:00:04.346633,0.006591796875,-0.0146484375,0.994384765625,-2.0426829268292686,1.707317073170732,0.15243902439024393
00:00:04.351905,-0.007080078125,-0.014404296875,1.01123046875,-1.7987804878048783,1.5853658536585367,0.24390243902439027
00:00:04.357184,0.00439453125,-0.00927734375,0.994140625,-1.829268292682927,1.6463414634146343,0.1829268292682927
00:00:04.362385,0.0,-0.01416015625,1.009033203125,-1.9207317073170733,1.4939024390243905,0.27439024390243905
00:00:04.367704,0.010498046875,-0.00439453125,0.998046875,-1.829268292682927,1.4939024390243905,0.39634146341463417
00:00:04.372885,-0.002685546875,-0.011962890625,1.01806640625,-1.829268292682927,1.5853658536585367,0.27439024390243905
00:00:04.378852,0.002685546875,-0.0107421875,0.9970703125,-1.9207317073170733,1.6463414634146343,0.3658536585365854
00:00:04.384026,0.005126953125,-0.010986328125,1.00341796875,-1.9207317073170733,1.4634146341463417,0.3353658536585366
00:00:04.389317,0.00390625,-0.006591796875,1.006591796875,-2.0121951219512195,1.5548780487804879,0.27439024390243905
00:00:04.394962,-0.001953125,-0.017822265625,1.0048828125,-2.1341463414634148,1.4939024390243905,0.3353658536585366
00:00:04.400300,0.00439453125,-0.009765625,1.001708984375,-1.981707317073171,1.5853658536585367,0.2134146341463415
00:00:04.405653,-0.000244140625,-0.014892578125,1.00390625,-2.103658536585366,1.402439024390244,0.24390243902439027
00:00:04.411250,0.007080078125,-0.008544921875,0.99853515625,-1.8902439024390245,1.2804878048780488,0.3353658536585366
00:00:04.416881,-0.00146484375,-0.0126953125,1.0009765625,-1.981707317073171,1.5548780487804879,0.2134146341463415
00:00:04.422245,0.003173828125,-0.009033203125,0.998046875,-1.8597560975609757,1.5243902439024393,0.39634146341463417
00:00:04.427498,0.0029296875,-0.011962890625,1.003662109375,-1.9512195121951221,1.7682926829268295,0.24390243902439027
00:00:04.432891,0.000244140625,-0.01318359375,0.99951171875,-1.7682926829268295,1.4634146341463417,0.24390243902439027
00:00:04.438223,0.006591796875,-0.008544921875,0.99951171875,-2.0121951219512195,1.6158536585365855,0.27439024390243905
00:00:04.443494,-0.000732421875,-0.010986328125,1.00830078125,-2.103658536585366,1.4634146341463417,0.24390243902439027
00:00:04.448773,0.001708984375,-0.012939453125,1.005859375,-2.0426829268292686,1.5853658536585367,0.30487804878048785
00:00:04.454097,0.001708984375,-0.009765625,1.00146484375,-1.8902439024390245,1.3414634146341464,0.2134146341463415
00:00:04.461269,-0.003173828125,-0.010498046875,1.015869140625,-1.981707317073171,1.6463414634146343,0.3658536585365854
00:00:04.465071,-0.00048828125,-0.012451171875,1.010498046875,-1.7987804878048783,1.4634146341463417,0.1829268292682927
00:00:04.470853,-0.00048828125,-0.008544921875,0.999755859375,-2.0426829268292686,1.3414634146341464,0.24390243902439027
00:00:04.476143,0.0,-0.017333984375,1.007080078125,-1.9512195121951221,1.3719512195121952,0.4573170731707317
00:00:04.481414,-0.002197265625,-0.014404296875,0.998046875,-2.0121951219512195,1.6463414634146343,0.3658536585365854
00:00:04.486635,-0.0107421875,-0.013671875,0.99853515625,-1.829268292682927,1.676829268292683,0.15243902439024393
00:00:04.491867,0.0009765625,-0.013916015625,1.0,-2.0121951219512195,1.5548780487804879,0.1829268292682927
00:00:04.497474,-0.00341796875,-0.01171875,1.010498046875,-1.707317073170732,1.4329268292682928,0.27439024390243905
00:00:04.504103,-0.00048828125,-0.011962890625,1.00439453125,-1.981707317073171,1.5243902439024393,0.5182926829268293
00:00:04.508943,-0.005126953125,-0.009521484375,1.005615234375,-1.7987804878048783,1.2804878048780488,0.27439024390243905
00:00:04.515140,0.002197265625,-0.01025390625,1.004638671875,-2.0426829268292686,1.707317073170732,0.426829268292683
00:00:04.519792,-0.00537109375,-0.016357421875,1.000244140625,-1.981707317073171,1.3414634146341464,0.39634146341463417
00:00:04.525195,0.005126953125,-0.013671875,0.995849609375,-2.103658536585366,1.676829268292683,0.24390243902439027
00:00:04.530466,-0.0009765625,-0.0126953125,1.004150390625,-1.981707317073171,1.3719512195121952,0.30487804878048785
00:00:04.535925,-0.001953125,-0.00732421875,1.00146484375,-1.9207317073170733,1.4329268292682928,0.30487804878048785
00:00:04.541142,0.003173828125,-0.0146484375,1.009521484375,-1.9207317073170733,1.4329268292682928,0.39634146341463417
00:00:04.546482,0.003662109375,-0.00341796875,0.99853515625,-1.981707317073171,1.5853658536585367,0.24390243902439027
00:00:04.551811,-0.006591796875,-0.01171875,1.006103515625,-1.829268292682927,1.402439024390244,0.15243902439024393
00:00:04.557095,0.005126953125,-0.015380859375,0.996826171875,-1.9207317073170733,1.5243902439024393,0.2134146341463415
00:00:04.562260,0.00341796875,-0.00927734375,1.0078125,-1.8597560975609757,1.5243902439024393,0.30487804878048785
00:00:04.567509,0.0,-0.01123046875,1.00830078125,-2.0426829268292686,1.707317073170732,0.2134146341463415
00:00:04.572873,-0.00244140625,-0.01611328125,1.005859375,-1.8597560975609757,1.6158536585365855,0.2134146341463415
00:00:04.578189,0.001220703125,-0.012451171875,0.9990234375,-1.981707317073171,1.5548780487804879,0.3353658536585366
00:00:04.583484,-0.006103515625,-0.0146484375,1.00341796875,-2.0426829268292686,1.829268292682927,0.3658536585365854
00:00:04.588723,0.00732421875,-0.01318359375,0.999755859375,-2.0121951219512195,1.402439024390244,0.30487804878048785
00:00:04.594015,-0.00048828125,-0.0185546875,0.999267578125,-2.0426829268292686,1.4634146341463417,0.30487804878048785
00:00:04.599382,-0.001220703125,-0.007080078125,1.00048828125,-1.7682926829268295,1.7682926829268295,0.24390243902439027
00:00:04.604629,0.00048828125,-0.014404296875,0.99462890625,-2.073170731707317,1.6158536585365855,0.3353658536585366
00:00:04.611463,0.00634765625,-0.008056640625,1.001708984375,-1.9207317073170733,1.5548780487804879,0.3658536585365854
00:00:04.616945,-0.00634765625,-0.01416015625,1.010498046875,-1.981707317073171,1.4939024390243905,0.3658536585365854
00:00:04.622095,0.00634765625,-0.0068359375,0.99853515625,-1.8902439024390245,1.402439024390244,0.3353658536585366
00:00:04.627380,0.000244140625,-0.017822265625,1.000244140625,-1.9512195121951221,1.5548780487804879,0.3353658536585366
00:00:04.632838,0.002197265625,-0.011474609375,1.00244140625,-1.9512195121951221,1.5243902439024393,0.27439024390243905
00:00:04.638144,-0.0009765625,-0.01513671875,1.008544921875,-2.1341463414634148,1.6463414634146343,0.1829268292682927
00:00:04.643359,0.00244140625,-0.0185546875,1.003662109375,-2.073170731707317,1.5853658536585367,0.3658536585365854
00:00:04.648838,0.000732421875,-0.009765625,1.002197265625,-2.103658536585366,1.6463414634146343,0.4573170731707317
00:00:04.654101,0.001708984375,-0.0126953125,1.007080078125,-1.7987804878048783,1.4939024390243905,0.30487804878048785
00:00:04.659346,0.0078125,-0.007568359375,1.001708984375,-1.981707317073171,1.6158536585365855,0.30487804878048785
00:00:04.664632,0.00048828125,-0.016845703125,1.00341796875,-1.8902439024390245,1.4634146341463417,0.24390243902439027
00:00:04.669866,0.009521484375,-0.008056640625,1.00341796875,-2.0426829268292686,1.5548780487804879,0.27439024390243905
00:00:04.675034,0.00244140625,-0.020263671875,1.01416015625,-1.7682926829268295,1.5243902439024393,0.27439024390243905
00:00:04.680344,0.00537109375,-0.00732421875,0.99853515625,-1.9207317073170733,1.5243902439024393,0.27439024390243905
00:00:04.685795,0.0009765625,-0.019287109375,1.0,-1.8902439024390245,1.4939024390243905,0.1829268292682927
00:00:04.691745,-0.00048828125,-0.015625,0.9990234375,-1.8597560975609757,1.6158536585365855,0.27439024390243905
00:00:04.696517,-0.001708984375,-0.009033203125,1.010498046875,-2.0121951219512195,1.3719512195121952,0.3658536585365854
00:00:04.701812,0.007080078125,-0.001220703125,0.998779296875,-1.981707317073171,1.5548780487804879,0.3353658536585366
00:00:04.707114,-0.00830078125,-0.018310546875,1.012451171875,-1.7987804878048783,1.6158536585365855,0.30487804878048785
00:00:04.712600,0.012939453125,-0.00244140625,0.991455078125,-1.8902439024390245,1.4939024390243905,0.2134146341463415
00:00:04.718474,-0.006103515625,-0.01513671875,1.001708984375,-1.829268292682927,1.3109756097560976,0.2134146341463415
00:00:04.723707,0.007080078125,-0.010009765625,0.99658203125,-1.9512195121951221,1.4939024390243905,0.3658536585365854
00:00:04.729043,0.0,-0.016357421875,1.00439453125,-2.0121951219512195,1.5853658536585367,0.30487804878048785
00:00:04.734339,0.00634765625,-0.005859375,1.005615234375,-1.829268292682927,1.5853658536585367,0.3353658536585366
00:00:04.740127,-0.007080078125,-0.01318359375,1.005615234375,-1.981707317073171,1.5243902439024393,0.3353658536585366
00:00:04.745608,-0.00048828125,-0.013427734375,1.005859375,-2.0121951219512195,1.5243902439024393,0.2134146341463415
00:00:04.751056,-0.0029296875,-0.01171875,1.001953125,-1.9207317073170733,1.5243902439024393,0.30487804878048785
00:00:04.756295,-0.005126953125,-0.010986328125,1.004150390625,-1.8902439024390245,1.5243902439024393,0.3353658536585366
00:00:04.761797,-0.0029296875,-0.023193359375,1.003662109375,-2.0121951219512195,1.6463414634146343,0.30487804878048785
00:00:04.767149,0.007568359375,-0.0126953125,1.003662109375,-2.0426829268292686,1.4329268292682928,0.426829268292683
00:00:04.772362,-0.00048828125,-0.020751953125,1.004638671875,-1.981707317073171,1.402439024390244,0.24390243902439027
00:00:04.777615,0.002685546875,-0.01025390625,1.0,-2.0121951219512195,1.2500000000000002,0.30487804878048785
00:00:04.782843,-0.003173828125,-0.00830078125,1.0,-2.0426829268292686,1.7682926829268295,0.3658536585365854
00:00:04.788084,0.001708984375,-0.014892578125,1.005859375,-2.0121951219512195,1.5548780487804879,0.30487804878048785
00:00:04.793550,0.00146484375,-0.01806640625,1.000732421875,-2.073170731707317,1.5548780487804879,0.3353658536585366
00:00:04.798943,0.00048828125,-0.01318359375,0.999755859375,-2.0121951219512195,1.5548780487804879,0.3353658536585366
00:00:04.804340,-0.000732421875,-0.01708984375,1.000244140625,-1.9207317073170733,1.707317073170732,0.27439024390243905
00:00:04.809855,-0.00048828125,-0.011474609375,1.0068359375,-1.7682926829268295,1.4329268292682928,0.3353658536585366
00:00:04.815137,-0.00048828125,-0.008056640625,1.0029296875,-2.103658536585366,1.676829268292683,0.2134146341463415
00:00:04.820618,0.0009765625,-0.01123046875,1.006591796875,-1.7682926829268295,1.5243902439024393,0.12195121951219513
00:00:04.825953,0.005126953125,-0.012451171875,1.005859375,-2.0426829268292686,1.7987804878048783,0.30487804878048785
00:00:04.831295,-0.001953125,-0.00732421875,1.00146484375,-1.9207317073170733,1.5243902439024393,0.27439024390243905
00:00:04.836650,0.0029296875,-0.013671875,1.00927734375,-2.073170731707317,1.4939024390243905,0.24390243902439027
00:00:04.842129,-0.0029296875,-0.009033203125,1.0029296875,-1.8597560975609757,1.4939024390243905,0.39634146341463417
00:00:04.847490,0.000732421875,-0.005615234375,0.996826171875,-2.103658536585366,1.707317073170732,0.24390243902439027
00:00:04.852902,-0.002197265625,-0.013671875,1.008056640625,-1.9207317073170733,1.3109756097560976,0.27439024390243905
00:00:04.858010,0.004638671875,-0.0146484375,1.00439453125,-2.164634146341464,1.6463414634146343,0.27439024390243905
00:00:04.863232,-0.002685546875,-0.0126953125,1.004150390625,-1.981707317073171,1.4634146341463417,0.12195121951219513
00:00:04.868475,-0.000732421875,-0.007568359375,0.99169921875,-1.8902439024390245,1.676829268292683,0.39634146341463417
00:00:04.873801,-0.000732421875,-0.01513671875,1.000732421875,-1.829268292682927,1.5853658536585367,0.39634146341463417
00:00:04.879117,0.003173828125,-0.011474609375,1.00537109375,-1.829268292682927,1.5853658536585367,0.24390243902439027
00:00:04.884546,-0.005126953125,-0.017578125,1.012451171875,-1.8902439024390245,1.4329268292682928,0.39634146341463417
00:00:04.889771,0.00146484375,-0.01708984375,1.00390625,-1.829268292682927,1.676829268292683,0.3353658536585366
00:00:04.895128,0.000732421875,-0.00927734375,1.00439453125,-2.0426829268292686,1.4634146341463417,0.27439024390243905
00:00:04.900667,0.000244140625,-0.00634765625,1.00048828125,-1.8597560975609757,1.402439024390244,0.30487804878048785
00:00:04.905816,-0.00244140625,-0.014892578125,1.0009765625,-1.9207317073170733,1.707317073170732,0.24390243902439027
00:00:04.911343,0.005126953125,-0.009033203125,1.00537109375,-1.8597560975609757,1.5243902439024393,0.30487804878048785
00:00:04.917969,0.001708984375,-0.01708984375,1.010498046875,-1.7987804878048783,1.5548780487804879,0.3658536585365854
00:00:04.922531,0.005859375,-0.009521484375,1.003173828125,-1.8597560975609757,1.4329268292682928,0.3353658536585366
00:00:04.927704,-0.0009765625,-0.01708984375,1.0107421875,-1.8902439024390245,1.5853658536585367,0.30487804878048785
00:00:04.932975,0.002197265625,-0.012451171875,1.00146484375,-1.829268292682927,1.3414634146341464,0.27439024390243905
00:00:04.938271,-0.0009765625,-0.012451171875,1.00146484375,-2.103658536585366,1.6158536585365855,0.24390243902439027
00:00:04.943619,0.002685546875,-0.013427734375,1.009033203125,-1.829268292682927,1.5548780487804879,0.1829268292682927
00:00:04.948900,0.00244140625,-0.012451171875,1.007568359375,-2.103658536585366,1.4939024390243905,0.3353658536585366
00:00:04.954478,0.0107421875,-0.01611328125,0.99853515625,-1.7682926829268295,1.4634146341463417,0.24390243902439027
00:00:04.960047,-0.00244140625,-0.01025390625,0.998291015625,-2.103658536585366,1.676829268292683,0.30487804878048785
00:00:04.965482,-0.004150390625,-0.010009765625,1.006103515625,-1.9512195121951221,1.5243902439024393,0.3353658536585366
00:00:04.970876,0.0,-0.01416015625,1.004638671875,-2.1341463414634148,1.7378048780487807,0.3353658536585366
00:00:04.976540,0.00048828125,-0.01171875,1.009521484375,-1.8597560975609757,1.6158536585365855,0.3353658536585366
00:00:04.981722,0.005859375,-0.007080078125,1.001953125,-2.164634146341464,1.676829268292683,0.27439024390243905
00:00:04.986839,-0.007080078125,-0.009521484375,0.99658203125,-1.7682926829268295,1.4329268292682928,0.27439024390243905
00:00:04.992278,0.005859375,-0.013916015625,0.99658203125,-2.2865853658536586,1.707317073170732,0.15243902439024393
00:00:04.997529,-0.0068359375,-0.015869140625,1.001220703125,-1.8597560975609757,1.4634146341463417,0.27439024390243905
00:00:05.002690,0.00390625,-0.012451171875,0.997802734375,-1.981707317073171,1.5853658536585367,0.3658536585365854
00:00:05.007855,-0.004638671875,-0.013427734375,1.003173828125,-2.073170731707317,1.4939024390243905,0.1829268292682927
00:00:05.013020,0.0068359375,-0.01416015625,0.9931640625,-2.0426829268292686,1.4329268292682928,0.2134146341463415
00:00:05.018312,-0.00048828125,-0.016357421875,1.011474609375,-1.829268292682927,1.5243902439024393,0.3353658536585366
00:00:05.023812,0.0009765625,-0.012939453125,0.995361328125,-2.1341463414634148,1.5548780487804879,0.3658536585365854
00:00:05.029185,-0.00390625,-0.013671875,1.0078125,-1.9207317073170733,1.6158536585365855,0.2134146341463415
00:00:05.034402,0.003662109375,-0.00634765625,0.998291015625,-1.9512195121951221,1.5548780487804879,0.27439024390243905
00:00:05.039756,-0.012939453125,-0.01708984375,1.0,-1.9207317073170733,1.4634146341463417,0.1829268292682927
00:00:05.044994,-0.001220703125,-0.01611328125,1.00146484375,-1.7682926829268295,1.5548780487804879,0.27439024390243905
00:00:05.050202,-0.002197265625,-0.01123046875,1.017578125,-1.9512195121951221,1.5548780487804879,0.27439024390243905
00:00:05.055362,0.005126953125,-0.007568359375,1.001220703125,-1.7987804878048783,1.5243902439024393,0.27439024390243905
00:00:05.060570,0.000732421875,-0.00732421875,1.00732421875,-1.8902439024390245,1.676829268292683,0.30487804878048785
00:00:05.065949,0.00244140625,-0.008544921875,1.000244140625,-1.7987804878048783,1.1890243902439026,0.30487804878048785
00:00:05.071306,0.002197265625,-0.014892578125,1.005615234375,-2.0121951219512195,1.5243902439024393,0.3353658536585366
00:00:05.076597,0.00146484375,-0.00830078125,1.0068359375,-1.7378048780487807,1.5548780487804879,0.3658536585365854
00:00:05.081751,0.001220703125,-0.003662109375,1.006591796875,-2.073170731707317,1.707317073170732,0.39634146341463417
00:00:05.086988,-0.00244140625,-0.015625,0.99755859375,-1.9207317073170733,1.402439024390244,0.30487804878048785
00:00:05.092207,0.008544921875,-0.01123046875,1.00927734375,-2.103658536585366,1.5853658536585367,0.12195121951219513
00:00:05.097562,-0.0029296875,-0.010498046875,1.00634765625,-1.981707317073171,1.402439024390244,0.2134146341463415
00:00:05.103009,0.000244140625,-0.01708984375,1.000732421875,-1.9207317073170733,1.6463414634146343,0.27439024390243905
00:00:05.108485,0.00048828125,-0.015625,1.006591796875,-1.8902439024390245,1.6158536585365855,0.27439024390243905
00:00:05.113871,-0.000244140625,-0.003662109375,0.998779296875,-2.103658536585366,1.8597560975609757,0.27439024390243905
00:00:05.119331,-0.005859375,-0.003662109375,1.00927734375,-1.9207317073170733,1.5548780487804879,0.30487804878048785
00:00:05.124523,0.00634765625,-0.01123046875,0.987548828125,-2.073170731707317,1.6158536585365855,0.2134146341463415
00:00:05.129942,-0.00244140625,-0.01416015625,1.012939453125,-1.9207317073170733,1.3719512195121952,0.30487804878048785
00:00:05.135814,0.002197265625,-0.00927734375,0.993896484375,-2.0426829268292686,1.5853658536585367,0.27439024390243905
00:00:05.140657,-0.0029296875,-0.012451171875,1.005126953125,-1.9512195121951221,1.5243902439024393,0.3353658536585366
00:00:05.148040,0.002197265625,-0.009765625,1.00390625,-1.981707317073171,1.7378048780487807,0.426829268292683
00:00:05.151216,-0.00048828125,-0.01416015625,1.003173828125,-1.9512195121951221,1.5548780487804879,0.2134146341463415
00:00:05.156438,0.001708984375,-0.002685546875,1.000244140625,-1.829268292682927,1.5243902439024393,0.24390243902439027
00:00:05.161681,0.00048828125,-0.0166015625,1.01123046875,-1.9512195121951221,1.5853658536585367,0.27439024390243905
00:00:05.166992,0.003173828125,-0.0078125,0.998779296875,-1.829268292682927,1.3414634146341464,0.426829268292683
00:00:05.172322,-0.00048828125,-0.010498046875,1.0068359375,-1.9207317073170733,1.5243902439024393,0.24390243902439027
00:00:05.177691,-0.000732421875,-0.00830078125,0.994384765625,-1.829268292682927,1.402439024390244,0.27439024390243905
00:00:05.182991,0.000244140625,-0.009765625,1.009521484375,-1.981707317073171,1.4634146341463417,0.1829268292682927
00:00:05.188290,0.00048828125,-0.010986328125,0.99560546875,-1.7682926829268295,1.3719512195121952,0.27439024390243905
00:00:05.193506,-0.001220703125,-0.0107421875,1.00048828125,-2.0426829268292686,1.707317073170732,0.1829268292682927
00:00:05.198743,0.001953125,-0.006591796875,0.999267578125,-1.8597560975609757,1.5853658536585367,0.3658536585365854
00:00:05.204042,-0.000732421875,-0.00634765625,1.002197265625,-1.981707317073171,1.5243902439024393,0.3353658536585366
00:00:05.210092,0.007568359375,-0.011962890625,1.006591796875,-1.8902439024390245,1.5548780487804879,0.24390243902439027
00:00:05.214840,-0.00390625,-0.011474609375,1.003662109375,-2.073170731707317,1.4329268292682928,0.27439024390243905
00:00:05.220226,-0.004150390625,-0.015625,0.992431640625,-1.9512195121951221,1.2500000000000002,0.27439024390243905
00:00:05.225671,-0.001708984375,-0.005615234375,1.00439453125,-2.073170731707317,1.707317073170732,0.30487804878048785
00:00:05.231072,-0.0009765625,-0.01123046875,1.00830078125,-1.9207317073170733,1.4329268292682928,0.39634146341463417
00:00:05.236387,0.002197265625,-0.0107421875,0.99951171875,-2.164634146341464,1.7378048780487807,0.30487804878048785
00:00:05.241613,0.00048828125,-0.017578125,1.0009765625,-1.8597560975609757,1.4329268292682928,0.30487804878048785
00:00:05.246955,0.007568359375,-0.005126953125,1.0009765625,-2.0426829268292686,1.6463414634146343,0.27439024390243905
00:00:05.252281,-0.0068359375,-0.011474609375,0.999267578125,-1.7682926829268295,1.5243902439024393,0.1829268292682927
00:00:05.257456,0.007568359375,-0.00732421875,0.989013671875,-2.1341463414634148,1.6463414634146343,0.1829268292682927
00:00:05.262754,-0.00341796875,-0.00732421875,1.01025390625,-1.8597560975609757,1.4329268292682928,0.30487804878048785
00:00:05.268050,0.004638671875,-0.00732421875,0.9970703125,-2.0121951219512195,1.5548780487804879,0.39634146341463417
00:00:05.273326,-0.00146484375,-0.015625,1.010009765625,-2.103658536585366,1.5243902439024393,0.3353658536585366
00:00:05.278603,0.002685546875,-0.012939453125,0.996826171875,-2.0426829268292686,1.5548780487804879,0.4573170731707317
00:00:05.284002,-0.001953125,-0.009521484375,1.005615234375,-1.9512195121951221,1.6463414634146343,0.3353658536585366
00:00:05.289266,0.002685546875,-0.012939453125,1.00146484375,-2.103658536585366,1.6158536585365855,0.24390243902439027
00:00:05.294659,-0.008544921875,-0.0107421875,1.009033203125,-1.9207317073170733,1.6158536585365855,0.3658536585365854
00:00:05.299907,-0.001953125,-0.01025390625,0.99951171875,-1.8902439024390245,1.5243902439024393,0.24390243902439027
00:00:05.305112,0.009033203125,-0.00830078125,1.0068359375,-2.0426829268292686,1.6158536585365855,0.30487804878048785
00:00:05.310331,-0.001708984375,-0.01513671875,1.003662109375,-1.8902439024390245,1.4634146341463417,0.2134146341463415
00:00:05.315998,-0.0009765625,-0.01953125,1.0087890625,-2.1341463414634148,1.5548780487804879,0.2134146341463415
00:00:05.321481,0.005859375,-0.008056640625,0.9990234375,-1.8597560975609757,1.5243902439024393,0.3658536585365854
00:00:05.326971,-0.006103515625,-0.0087890625,1.0009765625,-2.073170731707317,1.676829268292683,0.30487804878048785
00:00:05.332188,-0.000732421875,-0.011474609375,1.001953125,-1.829268292682927,1.4939024390243905,0.27439024390243905
00:00:05.337486,0.000732421875,-0.010986328125,1.00634765625,-2.0426829268292686,1.5853658536585367,0.27439024390243905
00:00:05.342978,0.0078125,-0.0205078125,1.00048828125,-2.0426829268292686,1.1890243902439026,0.39634146341463417
00:00:05.348288,0.00244140625,-0.017578125,1.002197265625,-2.0426829268292686,1.5243902439024393,0.30487804878048785
00:00:05.353543,0.00146484375,-0.015380859375,1.009765625,-1.7682926829268295,1.6463414634146343,0.426829268292683
00:00:05.358844,0.00341796875,-0.015869140625,0.998046875,-2.0426829268292686,1.6158536585365855,0.3353658536585366
00:00:05.364153,-0.005126953125,-0.01318359375,1.001953125,-1.9207317073170733,1.5548780487804879,0.2134146341463415
00:00:05.369447,0.003662109375,-0.0107421875,1.011474609375,-2.0426829268292686,1.707317073170732,0.3353658536585366
00:00:05.374705,-0.0029296875,-0.0107421875,1.000732421875,-1.829268292682927,1.4939024390243905,0.3658536585365854
00:00:05.379940,0.001953125,-0.004150390625,0.99658203125,-2.0121951219512195,1.4939024390243905,0.3353658536585366
00:00:05.385120,-0.0048828125,-0.015380859375,1.01220703125,-1.7682926829268295,1.3109756097560976,0.39634146341463417
00:00:05.390395,0.001708984375,-0.008056640625,1.005126953125,-1.8902439024390245,1.707317073170732,0.426829268292683
00:00:05.395792,-0.00927734375,-0.014892578125,1.003662109375,-1.9512195121951221,1.5853658536585367,0.27439024390243905
00:00:05.401208,0.007568359375,-0.01025390625,0.993408203125,-1.7682926829268295,1.707317073170732,0.24390243902439027
00:00:05.408260,-0.001220703125,-0.01611328125,1.00537109375,-1.9512195121951221,1.5548780487804879,0.3658536585365854
00:00:05.411887,0.004150390625,-0.008544921875,1.000244140625,-1.8902439024390245,1.3719512195121952,0.30487804878048785
00:00:05.417154,-0.00341796875,-0.01318359375,1.00732421875,-2.0426829268292686,1.676829268292683,0.27439024390243905
00:00:05.422759,0.003662109375,-0.0087890625,0.99853515625,-2.0121951219512195,1.4634146341463417,0.3658536585365854
00:00:05.428841,-0.002685546875,-0.01806640625,1.011962890625,-1.8902439024390245,1.4939024390243905,0.27439024390243905
00:00:05.433770,0.005126953125,-0.007568359375,1.002685546875,-1.9207317073170733,1.3719512195121952,0.30487804878048785
00:00:05.438701,-0.005615234375,-0.01513671875,1.001708984375,-1.9512195121951221,1.6463414634146343,0.24390243902439027
00:00:05.443912,0.000244140625,-0.011962890625,1.0048828125,-1.829268292682927,1.3719512195121952,0.2134146341463415
00:00:05.449174,0.0009765625,-0.011474609375,1.00537109375,-2.073170731707317,1.4939024390243905,0.3353658536585366
00:00:05.454446,0.000244140625,-0.007080078125,1.01171875,-1.9512195121951221,1.3719512195121952,0.27439024390243905
00:00:05.459813,-0.00244140625,-0.015380859375,1.00146484375,-2.0426829268292686,1.707317073170732,0.3658536585365854
00:00:05.465134,-0.002197265625,-0.0146484375,1.00244140625,-1.9207317073170733,1.2804878048780488,0.27439024390243905
